time,gFx,gFy,gFz,ax,ay,az,wx,wy,wz,p,Bx,By,Bz,I,Azimuth,Pitch,Roll,Gain,Latitude,Longitude,Speed (m/s)
0.062571,0.0,0.0,0.0,0.0,0.0,0.0,0.0,0.0,0.0,0.0,0.0,0.0,0.0,311.0,0.0,0.0,0.0,-0.0,0.0,0.0,0.0
0.085386,-0.1261,0.3191,0.9624,-1.2038,2.6692,-0.3649,-0.0585,0.0512,-0.0522,0.0,0.0,0.0,0.0,311.0,1.573,-2.6745,-0.1849,-0.0,59.93229101,10.71991311,0.0
0.143617,-0.1153,0.3,0.9577,-0.9261,2.1488,-0.387,-0.0029,-0.0141,0.0125,0.0,0.0,0.0,0.0,311.0,1.741,-4.6278,-1.1957,-0.0,59.93229101,10.71991311,0.0
0.205395,-0.1068,0.2885,0.9492,-0.699,1.7335,-0.4375,-0.0408,-0.0086,0.0174,0.0,0.0,0.0,0.0,311.0,17.9002,-6.4051,-2.042,-0.0,59.93229101,10.71991311,0.0
0.265911,-0.1197,0.2956,0.9567,-0.6879,1.497,-0.3181,-0.0408,0.0128,-0.0254,980.7449,-2.4,-2.76,-21.18,311.0,42.0165,-8.2075,-2.8656,-0.0,59.93229101,10.71991311,0.0
0.325027,-0.1158,0.2753,0.9413,-0.4937,0.9829,-0.409,0.0619,0.0354,-0.0327,980.7449,-1.68,-2.52,-23.22,311.0,61.2407,-10.0742,-3.8074,-0.0,59.93229101,10.71991311,0.0
0.387141,-0.1319,0.2944,0.9638,-0.4637,0.8857,-0.1194,-0.0512,0.0555,-0.084,980.7449,-1.32,-2.34,-23.04,310.0,57.1866,-11.7634,-4.9546,-0.0,59.93229101,10.71991311,0.0
0.447663,-0.0723,0.3567,0.965,0.2108,1.2865,-0.0529,-0.1801,-0.0117,0.3045,980.7446,-2.16,-3.42,-21.6,310.0,63.7272,-13.0178,-5.5226,-0.0,59.93229101,10.71991311,0.0
0.508413,-0.1571,0.2756,0.9484,-0.6502,0.5728,-0.237,-0.152,0.0842,0.139,980.7446,-1.32,-0.9,-22.74,310.0,60.901,-12.5316,-5.3304,6.3643,59.93229101,10.71991311,0.0
0.56616,-0.1246,0.1859,0.9323,-0.2354,-0.2799,-0.3913,-0.1067,0.2229,-0.0113,980.7441,-1.44,-1.08,-21.42,310.0,57.4234,-12.3764,-5.9062,6.3643,59.93229101,10.71991311,0.0
0.6278,-0.1593,0.2145,0.9663,-0.4297,0.0236,-0.0475,0.0057,0.1893,-0.0412,980.7441,-0.06,-0.24,-23.88,310.0,53.3499,-12.2365,-6.7793,6.3643,59.93229101,10.71991311,0.0
0.693205,-0.213,0.2824,0.9663,-0.8119,0.7009,-0.0317,0.0417,0.4471,-0.3454,980.7388,-1.38,-2.22,-21.06,310.0,51.0169,-12.1668,-7.6479,6.3643,59.93229101,10.71991311,0.0
0.750498,-0.1412,0.2414,0.9216,0.1918,0.2727,-0.4191,0.1064,0.3383,-0.0724,980.749,1.92,0.18,-23.1,310.0,51.7977,-12.322,-9.466,6.3643,59.93229101,10.71991311,0.0
0.810845,-0.2064,0.2888,1.011,-0.1695,0.7166,0.5124,-0.5166,0.7079,-0.1066,980.749,1.14,-1.86,-21.3,310.0,49.4593,-12.4449,-11.1608,19.2333,59.93229101,10.71991311,0.0
0.864455,-0.2064,0.2888,1.011,0.2037,0.9957,0.5348,-0.5166,0.7079,-0.1066,980.739,3.36,0.3,-23.94,307.0,45.6645,-10.7802,-13.3646,19.2333,59.93229101,10.71991311,0.0
0.927319,-0.3208,0.1781,0.8473,-0.5468,-0.1573,-0.9598,-0.2521,0.9382,0.0828,980.739,4.92,0.3,-23.7,307.0,41.2772,-11.1872,-15.66,19.2333,59.93229101,10.71991311,0.0
0.988836,-0.3992,0.2157,0.8685,-0.5888,0.4368,-0.5609,-0.6926,1.2876,0.2471,980.729,8.22,1.56,-25.38,304.0,35.6335,-9.8478,-20.1179,19.2333,59.93229101,10.71991311,0.0
1.050014,-0.3298,0.2526,0.9286,0.566,1.0391,0.1743,-0.199,0.7562,0.1982,980.7349,12.6,4.26,-24.48,298.0,29.2987,-8.4229,-23.0499,19.2333,59.93229101,10.71991311,0.0
1.128293,-0.547,0.2165,0.8048,-1.0594,0.679,-0.8073,0.1254,1.1856,-0.2367,980.7349,12.3,1.5,-19.08,298.0,24.6158,-8.4571,-26.3245,28.4813,59.93229101,10.71991311,0.0
1.163334,-0.5795,0.1867,0.7979,-0.7564,0.3928,-0.5391,0.1254,1.1856,-0.2367,980.7305,15.54,2.04,-18.9,298.0,20.4403,-8.4225,-30.496,28.4813,59.93229101,10.71991311,0.0
1.228284,-0.6479,0.1962,0.6887,-0.7351,0.6071,-1.1824,-0.1825,1.5705,-0.0669,980.7305,19.86,4.32,-20.4,267.0,15.7747,-7.709,-35.2928,28.4813,59.93229101,10.71991311,0.0
1.286207,-0.7715,0.1815,0.3948,-1.1996,0.5539,-3.493,-0.8691,1.8869,0.0589,980.7258,23.52,4.8,-19.32,267.0,10.6759,-7.1757,-40.8306,28.4813,59.93229101,10.71991311,0.0
1.348761,-0.7821,0.0322,0.9272,-0.4403,-0.313,2.484,-1.3957,2.6358,-0.4175,980.7349,27.24,7.08,-17.22,267.0,2.2719,-3.6774,-47.5738,28.4813,59.93229101,10.71991311,0.0
1.405884,-0.9172,0.073,0.5343,-1.0299,0.5867,-0.4925,-0.4635,1.2717,-0.3662,980.7349,31.38,8.88,-12.18,233.0,355.7051,-0.7549,-54.2506,37.2714,59.93229101,10.71991311,0.0
1.465225,-0.9409,0.0076,0.7762,-0.7317,0.2989,2.7014,0.1608,1.6816,-0.478,980.7646,34.5,12.6,-9.48,196.0,350.7692,1.3128,-59.9782,37.2714,59.93229101,10.71991311,0.0
1.52485,-0.9472,0.0156,0.4332,-0.4253,0.4787,0.0483,0.2769,1.4917,-0.3583,980.7646,30.78,2.76,-3.9,196.0,347.5569,1.9021,-64.6484,37.2714,59.93229101,10.71991311,0.0
1.588733,-1.0288,-0.0313,0.2863,-0.9791,0.1483,-0.8127,0.1407,0.5809,-0.3577,980.7874,28.86,-0.96,-0.48,158.0,344.1331,2.6577,-68.3211,37.2714,59.93229101,10.71991311,0.0
1.646498,-1.0256,-0.0024,0.2712,-0.8843,0.5308,-0.7822,0.0863,-0.1351,-0.1762,980.7556,29.16,0.06,1.26,122.0,339.8277,3.2429,-69.4319,37.2714,59.93229101,10.71991311,0.0
1.705587,-0.8583,-0.096,0.3533,0.6402,-0.4023,-0.2735,0.1559,-0.9958,0.1506,980.7556,30.3,0.84,-0.6,122.0,335.0655,3.1483,-67.5738,41.4881,59.93229101,10.71991311,0.0
1.768284,-0.9409,0.0098,0.3694,-0.3742,0.4735,-0.5958,0.1431,-0.2371,0.3082,980.7346,28.8,1.02,-3.3,122.0,330.7538,2.2076,-64.519,41.4881,59.93229101,10.71991311,0.0
1.826153,-0.9726,-0.1021,0.3152,-0.6016,-0.8336,-0.9608,0.2366,0.9761,0.1658,980.7346,27.42,-1.98,-3.36,108.0,325.9956,0.9766,-65.6079,41.4881,59.93229101,10.71991311,0.0
1.886489,-1.0227,0.0506,0.3034,-0.8579,0.5579,-0.5161,0.6935,-0.0459,0.0345,980.7498,29.88,-2.34,-1.38,108.0,322.4301,0.364,-69.1543,41.4881,59.93229101,10.71991311,0.0
1.949518,-0.9343,0.0855,0.3125,-0.2595,0.6703,-1.0608,0.0283,-2.0483,0.4255,980.7188,28.2,-3.06,-2.82,104.0,318.2252,-0.9798,-65.1343,41.4881,59.93229101,10.71991311,0.0
2.005985,-0.8483,0.1138,0.4427,0.3278,0.8824,-0.2935,-0.086,1.4239,-0.0748,980.7188,26.22,-4.14,-4.68,104.0,312.9783,-1.3633,-61.8067,56.9635,59.93229101,10.71991311,0.0
2.06636,-0.9543,0.032,0.2204,-0.0916,0.0746,-1.0588,0.1156,3.8545,0.0418,980.7168,28.86,-3.84,-1.2,104.0,308.4965,-1.3965,-70.8358,56.9635,59.93229101,10.71991311,0.0
2.12571,-1.0337,0.0564,-0.1994,-0.3676,0.2566,-2.8341,-0.3199,3.3902,-0.1023,980.7168,33.66,-3.96,7.32,111.0,303.6346,-1.7324,-84.847,56.9635,59.93229101,10.71991311,0.0
2.186029,-1.3982,0.0774,0.4498,-3.9615,0.7215,5.5416,-0.2082,0.262,-0.2587,980.7219,37.32,-1.38,16.68,111.0,295.1394,-179.7814,-83.3602,56.9635,59.93229101,10.71991311,0.0
2.250338,-0.8615,-0.0046,-0.3025,1.311,-0.1848,-1.9514,0.104,0.1093,0.343,980.7554,37.32,-1.8,19.5,111.0,292.0764,-179.1858,-84.0725,56.9635,59.93229101,10.71991311,0.0
2.307455,-1.0745,0.0931,-0.1048,-0.7713,0.7194,-0.0785,0.1077,-0.5835,-0.1182,980.7554,37.2,-3.06,19.92,34.0,286.6103,-178.8735,-84.4481,53.5049,59.93229101,10.71991311,0.0
2.368238,-0.9704,0.0015,-0.1146,0.2659,-0.1459,-0.3644,0.005,0.138,-0.0302,980.7598,36.12,-2.88,19.02,34.0,282.0708,-179.0637,-85.5633,53.5049,59.93229101,10.71991311,0.0
2.425666,-1.0036,0.0398,-0.1769,-0.0698,0.2331,-0.8545,0.0368,0.1746,-0.0388,980.7598,36.54,-2.7,17.88,34.0,277.787,-179.0816,-84.8573,53.5049,59.93229101,10.71991311,0.0
2.485615,-0.9968,0.053,-0.1121,-0.0092,0.3785,-0.1487,0.0148,-0.2597,0.004,980.7549,36.54,-2.7,18.12,34.0,274.1633,-179.1761,-84.4388,53.5049,59.93229101,10.71991311,0.0
2.545395,-1.0083,0.0322,-0.1312,-0.1098,0.1496,-0.4721,-0.0579,-0.0434,0.007,980.7454,36.96,-2.46,18.36,36.0,271.6534,-179.0276,-85.2404,53.5049,59.93229101,10.71991311,0.0
2.607384,-1.0254,0.0225,-0.1065,-0.281,0.0469,-0.1887,-0.0579,-0.0434,0.007,980.7454,35.4,-3.42,18.54,36.0,269.0666,-178.987,-84.9963,51.8016,59.93229101,10.71991311,0.0
2.664412,-1.0071,0.0076,-0.1586,-0.1072,-0.1245,-0.6409,-0.0017,-0.0178,0.0339,980.74,35.4,-3.0,19.02,36.0,267.3436,-178.8392,-84.6572,51.8016,59.93229101,10.71991311,0.0
2.728496,-1.0093,0.0464,-0.1314,-0.1232,0.2192,-0.4452,-0.0298,-0.2921,0.0797,980.74,38.04,-1.32,16.62,39.0,266.6313,-178.6227,-85.0679,51.8016,59.93229101,10.71991311,0.0
2.785911,-1.0022,0.0178,-0.1156,-0.0444,-0.0871,-0.416,-0.0005,-0.1766,0.018,980.7498,36.48,-4.38,18.72,39.0,265.1051,-178.4697,-85.8089,51.8016,59.93229101,10.71991311,0.0
2.848923,-1.0181,0.0537,-0.1004,-0.1991,0.2368,-0.292,0.0008,-0.0856,0.0406,980.7434,36.72,-3.12,16.98,39.0,264.0497,-178.3057,-85.9518,51.8016,59.93229101,10.71991311,0.0
2.90775,-0.998,0.0564,-0.0916,0.0007,0.2378,-0.268,-0.0469,-0.1846,0.0321,980.7434,35.76,-3.9,17.04,44.0,263.0872,-178.1576,-86.3161,53.4773,59.93229101,10.71991311,0.0
2.965045,-0.9882,0.0428,-0.0967,0.0973,0.0587,-0.3559,-0.0958,-0.0673,0.0131,980.7434,36.3,-3.12,15.48,44.0,262.0626,-177.8947,-86.5355,53.4773,59.93229101,10.71991311,0.0
3.025839,-1.001,0.0423,-0.0906,-0.0332,0.0273,-0.2192,-0.0878,0.0158,-0.0064,980.7434,36.36,-3.66,16.5,44.0,260.195,-177.7391,-86.0849,53.4773,59.93229101,10.71991311,0.0
3.08412,-1.0032,0.0564,-0.0872,-0.0573,0.1614,-0.1526,-0.1,-0.0447,-0.0034,980.7434,35.34,-4.62,18.3,44.0,259.7719,-177.711,-85.8909,53.4773,59.93229101,10.71991311,0.0
3.146437,-1.0388,0.0279,-0.0919,-0.4096,-0.1308,-0.1667,-0.053,0.1239,-0.0168,980.7375,37.5,-2.76,13.38,48.0,258.2647,-177.6407,-85.7066,53.4773,59.93229101,10.71991311,0.0
3.205131,-0.9895,0.0357,-0.0977,0.07,-0.0477,-0.1691,0.005,-0.0349,-0.0046,980.7375,36.78,-3.78,14.7,48.0,258.506,-177.6782,-85.384,51.9723,59.93229101,10.71991311,0.0
3.264727,-1.0046,0.0469,-0.0919,-0.0778,0.0752,-0.1136,-0.009,0.0305,-0.0302,980.7385,36.3,-3.36,14.34,48.0,258.6253,-177.7529,-85.3954,51.9723,59.93229101,10.71991311,0.0
3.324981,-1.0212,0.0479,-0.0877,-0.2448,0.0926,-0.0193,0.0386,0.0775,0.0095,980.7385,37.44,-2.7,14.28,46.0,258.705,-177.799,-85.0814,51.9723,59.93229101,10.71991311,0.0
3.385202,-0.9973,0.0577,-0.0933,-0.0128,0.1711,-0.0513,0.0594,-0.0325,0.029,980.751,38.04,-1.44,13.68,46.0,258.7056,-177.6977,-84.9457,51.9723,59.93229101,10.71991311,0.0
3.447906,-1.0083,0.0599,-0.0963,-0.1209,0.1721,-0.0856,0.0594,-0.0325,0.029,980.7454,37.74,-2.34,13.38,46.0,258.6158,-177.5776,-84.9775,51.9723,59.93229101,10.71991311,0.0
3.512677,-0.9997,0.0574,-0.0985,-0.0381,0.1398,-0.0996,0.0313,-0.0074,0.0034,980.7454,36.96,-2.22,13.32,44.0,258.6368,-177.5286,-84.9332,50.408,59.93229101,10.71991311,0.0
3.569172,-1.0102,0.0567,-0.0892,-0.141,0.1209,-0.0152,0.005,-0.0325,-0.0052,980.7556,37.8,-1.8,13.5,44.0,258.5833,-177.4601,-84.9715,50.408,59.93229101,10.71991311,0.0
3.62596,-1.0085,0.0457,-0.086,-0.1234,0.0069,0.0027,0.0179,-0.0166,0.0021,980.7556,37.74,-2.16,13.86,44.0,258.5358,-177.4234,-85.0493,50.408,59.93229101,10.71991311,0.0
3.687009,-1.0022,0.0581,-0.0853,-0.0605,0.129,0.0023,0.0069,-0.0245,-0.0107,980.7651,37.5,-1.86,12.72,44.0,258.5935,-177.4239,-85.0935,50.408,59.93229101,10.71991311,0.0
3.750563,-1.0144,0.0486,-0.0794,-0.1793,0.0319,0.0469,-0.0108,-0.0233,-0.0156,980.7488,36.54,-3.84,15.66,46.0,258.5697,-177.4021,-85.1692,50.408,59.93229101,10.71991311,0.0
3.804878,-1.0022,0.0474,-0.0901,-0.0588,0.0173,-0.0694,-0.0102,-0.0007,0.0021,980.7488,38.46,-0.84,12.48,46.0,258.5247,-177.3864,-85.2336,50.5928,59.93229101,10.71991311,0.0
3.8671,-1.0129,0.0474,-0.0816,-0.1646,0.0153,0.019,-0.0206,-0.0153,0.0046,980.7446,36.54,-3.12,13.74,46.0,258.4492,-177.375,-85.2063,50.5928,59.93229101,10.71991311,0.0
3.925234,-1.0066,0.0457,-0.0782,-0.1002,-0.0079,0.0232,0.0166,-0.0312,0.0217,980.7446,37.86,-1.56,12.6,48.0,258.369,-177.3374,-85.3784,50.5928,59.93229101,10.71991311,0.0
3.985048,-0.999,0.0474,-0.0911,-0.0269,-0.0071,-0.1015,0.0295,0.047,0.0388,980.7632,38.1,-1.8,13.38,48.0,258.2955,-177.2438,-85.365,50.5928,59.93229101,10.71991311,0.0
4.049406,-1.0151,0.053,-0.0894,-0.1879,0.0328,-0.0579,-0.017,0.0317,0.0131,980.7715,37.44,-1.92,12.78,48.0,258.1543,-177.1548,-85.2073,50.5928,59.93229101,10.71991311,0.0
4.108635,-0.9988,0.0469,-0.0967,-0.0278,-0.033,-0.13,-0.0084,-0.0288,0.0089,980.7715,37.32,-2.58,13.92,47.0,258.053,-177.12,-85.2085,49.2922,59.93229101,10.71991311,0.0
4.165846,-1.0188,0.0591,-0.0872,-0.2238,0.0855,-0.0406,0.0014,-0.0117,0.018,980.7539,37.56,-2.04,13.98,47.0,258.0302,-177.113,-85.2321,49.2922,59.93229101,10.71991311,0.0
4.228453,-0.9956,0.0501,-0.0923,0.0035,-0.0202,-0.0999,0.0142,-0.0312,0.0351,980.7539,37.98,-2.58,13.14,47.0,257.8707,-177.0131,-85.2845,49.2922,59.93229101,10.71991311,0.0
4.286163,-0.9924,0.052,-0.1038,0.0324,-0.0215,-0.1994,0.0392,0.0738,0.0376,980.7507,38.04,-2.1,13.62,47.0,257.7155,-176.8933,-85.2074,49.2922,59.93229101,10.71991311,0.0
4.346741,-1.0102,0.0518,-0.1041,-0.1473,-0.0395,-0.1549,0.0295,0.0231,0.026,980.7327,35.94,-4.92,16.08,48.0,257.6474,-176.8022,-84.9315,49.2922,59.93229101,10.71991311,0.0
4.406524,-1.0078,0.0828,-0.0838,-0.1246,0.248,0.0472,-0.0151,-0.0514,0.0406,980.7327,37.98,-2.7,12.54,48.0,257.5546,-176.7054,-84.9109,49.4731,59.93229101,10.71991311,0.0
4.465011,-1.0063,0.0828,-0.0621,-0.1087,0.214,0.2201,-0.1281,-0.0355,0.004,980.7429,37.2,-3.0,14.4,48.0,256.9461,-176.5059,-85.1464,49.4731,59.93229101,10.71991311,0.0
4.524854,-1.01,0.097,-0.0877,-0.1471,0.3227,-0.0243,-0.2173,0.1649,-0.0003,980.7429,36.84,-3.0,12.72,50.0,255.978,-176.3297,-85.1043,49.4731,59.93229101,10.71991311,0.0
4.585705,-0.9985,0.0511,-0.1041,-0.0418,-0.1561,-0.1244,-0.152,0.0653,-0.0412,980.7246,38.64,-1.86,13.26,50.0,254.8932,-176.1618,-84.7485,49.4731,59.93229101,10.71991311,0.0
4.647399,-1.01,0.0335,-0.1077,-0.1572,-0.3191,-0.1235,-0.1141,0.0738,-0.0009,980.7122,37.86,-2.4,13.98,50.0,254.4799,-176.2164,-84.5323,49.4731,59.93229101,10.71991311,0.0
4.705278,-0.9944,0.0679,-0.1173,-0.007,0.0336,-0.1758,-0.0951,-0.0068,0.0101,980.7122,38.04,-1.98,13.98,44.0,254.3296,-176.3052,-84.2913,50.3491,59.93229101,10.71991311,0.0
4.765008,-1.0171,0.0376,-0.0953,-0.2264,-0.2584,0.0097,-0.0622,-0.1284,0.0107,980.7063,37.86,-1.8,13.8,44.0,254.14,-176.3337,-84.468,50.3491,59.93229101,10.71991311,0.0
4.825518,-1.0078,0.0711,-0.0994,-0.1311,0.0738,-0.0732,-0.0237,-0.0453,0.0357,980.7063,38.16,-2.28,14.22,44.0,254.1315,-176.358,-84.7162,50.3491,59.93229101,10.71991311,0.0
4.886939,-0.9868,0.0498,-0.1305,0.0736,-0.1433,-0.3712,0.0154,0.0885,0.0009,980.7136,38.52,-1.8,13.44,44.0,254.0833,-176.3067,-84.6801,50.3491,59.93229101,10.71991311,0.0
4.945641,-1.0181,0.0855,-0.1165,-0.2492,0.2187,-0.0662,-0.0646,0.375,-0.0816,980.7075,38.28,-2.64,15.24,44.0,254.1166,-176.3795,-83.6892,50.3491,59.93229101,10.71991311,0.0
5.004698,-0.9946,0.0269,-0.1378,-0.0502,-0.3278,-0.0123,0.115,0.5515,0.1353,980.7075,37.62,-2.34,17.1,44.0,253.766,-176.5438,-82.1436,50.7813,59.93229101,10.71991311,0.0
5.065735,-0.9953,0.0665,-0.0765,-0.0843,0.0344,0.761,0.0539,-0.2401,-0.2074,980.7087,37.2,-2.94,17.64,44.0,254.0746,-176.3937,-81.1226,50.7813,59.93229101,10.71991311,0.0
5.127421,-0.9245,0.0948,-0.4398,0.6516,0.2157,-3.1494,-0.0713,0.5326,0.5476,980.7087,36.78,-3.12,15.78,40.0,252.2698,-175.8293,-83.1875,50.7813,59.93229101,10.71991311,0.0
5.184867,-1.2675,0.0645,0.0081,-2.7776,-0.0213,1.7341,-0.1868,-0.782,-0.2856,980.6951,38.4,-2.76,17.16,40.0,253.9585,-176.1799,-80.2616,50.7813,59.93229101,10.71991311,0.0
5.246399,-0.9741,0.0381,-0.0987,0.1807,-0.3105,0.0787,0.0625,-0.7887,0.1133,980.7222,38.52,-1.74,15.9,40.0,257.4488,-176.0005,-83.8621,50.7813,59.93229101,10.71991311,0.0
5.306377,-1.0234,0.1329,-0.1256,-0.2904,0.6138,-0.3122,0.2653,0.3719,0.1298,980.7222,37.62,-3.36,15.36,46.0,259.8351,-175.9731,-84.6128,96.6906,59.93229101,10.71991311,0.0
5.363851,-0.9997,0.0909,-0.119,-0.0905,0.1533,0.0182,-0.0829,0.141,-0.087,980.7173,38.52,-2.28,14.7,46.0,258.7785,-175.6878,-83.0448,96.6906,59.93229101,10.71991311,0.0
5.42438,-0.9851,0.064,-0.1119,0.0697,-0.0693,-0.0291,-0.0652,-0.3208,-0.0315,980.7173,37.2,-3.42,15.9,46.0,260.4836,-175.9266,-83.7354,96.6906,59.93229101,10.71991311,0.0
5.485652,-1.0044,0.0261,-0.118,-0.1169,-0.4215,-0.0999,-0.0151,0.251,-0.0027,980.7332,37.56,-3.0,13.5,46.0,260.8322,-176.0374,-83.8004,96.6906,59.93229101,10.71991311,0.0
5.544874,-1.0266,0.0706,-0.1419,-0.3433,0.0113,-0.2604,-0.0041,-0.0923,0.0443,980.7268,38.7,-2.64,15.24,41.0,261.0055,-176.0203,-83.3633,96.6906,59.93229101,10.71991311,0.0
5.60197,-1.0212,0.0853,-0.119,-0.2834,0.1415,-0.108,-0.1452,-0.1113,-0.0583,980.7268,38.28,-2.16,15.18,41.0,261.74,-175.9412,-83.7911,88.7681,59.93229101,10.71991311,0.0
5.661103,-0.997,0.0322,-0.0892,-0.0556,-0.4043,0.2489,0.2243,0.0848,0.1261,980.7178,38.04,-2.94,15.72,41.0,262.4921,-175.7875,-83.408,88.7681,59.93229101,10.71991311,0.0
5.722794,-0.8724,0.2152,0.0161,1.1659,1.3889,1.2769,0.06,-0.5334,-0.0602,980.7178,38.58,-3.06,15.96,43.0,262.7194,-175.7874,-83.4308,88.7681,59.93229101,10.71991311,0.0
5.781149,-1.0889,0.0716,-0.3017,-0.9447,-0.2181,-2.1092,-0.1043,1.1251,0.1695,980.7053,37.86,-3.96,14.94,43.0,260.8956,-174.6196,-85.0194,88.7681,59.93229101,10.71991311,0.0
5.842229,-1.1536,0.0489,0.001,-1.6028,-0.2922,1.2049,-0.1037,-0.9775,-0.098,980.7253,37.8,-3.54,16.8,43.0,261.1614,-175.4902,-82.9768,88.7681,59.93229101,10.71991311,0.0
5.90143,-0.9416,0.0046,-0.0899,0.5273,-0.7463,-0.2601,0.0111,-0.5211,-0.1023,980.7253,38.1,-3.12,14.34,50.0,263.2591,-175.3687,-86.3576,97.9696,59.93229101,10.71991311,0.0
5.96273,-1.0046,0.1539,-0.1033,-0.098,0.7926,-0.2071,0.0093,0.8399,-0.0241,980.7319,37.74,-3.0,13.44,50.0,263.1055,-175.8146,-85.275,97.9696,59.93229101,10.71991311,0.0
6.020914,-0.9411,0.0476,-0.1309,0.4937,-0.1961,-0.1344,-0.2692,0.0702,-0.1964,980.7319,38.1,-1.86,15.48,50.0,263.5154,-176.1237,-83.2563,97.9696,59.93229101,10.71991311,0.0
6.081531,-1.0557,-0.0134,-0.1141,-0.6131,-0.7635,-0.0944,0.0142,-0.333,0.0302,980.7222,37.32,-3.72,19.44,50.0,264.1274,-176.3063,-83.9957,97.9696,59.93229101,10.71991311,0.0
6.140328,-0.9846,0.0645,-0.1231,0.0876,-0.016,-0.2318,0.0142,-0.333,0.0302,980.7222,37.2,-2.76,16.44,43.0,264.1274,-176.3063,-83.9957,97.9696,59.93229101,10.71991311,0.0
6.201891,-1.044,0.0596,-0.1268,-0.5059,-0.0932,-0.1758,0.0008,0.0415,-0.0302,980.7236,35.64,-5.94,20.4,43.0,263.6336,-176.0395,-83.7399,90.0427,59.93229101,10.71991311,0.0
6.260935,-1.0293,0.0591,-0.0513,-0.3623,-0.0867,0.5719,0.1486,0.0757,0.1542,980.738,37.86,-1.98,15.9,43.0,263.8404,-176.1054,-83.6941,90.0427,59.93229101,10.71991311,0.0
6.326056,-1.0063,0.096,-0.0792,-0.1443,0.1972,0.3117,0.3795,0.006,0.0235,980.738,38.88,-2.46,15.18,41.0,263.9165,-175.6506,-83.6154,90.0427,59.93229101,10.71991311,0.0
6.381243,-0.7457,0.2873,-0.1845,2.406,1.9984,-0.7341,-0.4464,0.929,0.2263,980.7163,37.86,-3.72,14.46,41.0,262.2004,-175.2203,-83.6932,90.0427,59.93229101,10.71991311,0.0
6.444075,-1.0615,-0.031,-0.1551,-0.7647,-0.9812,0.1567,-0.235,-0.4778,-0.3522,980.7166,38.7,-2.22,16.86,41.0,264.6854,-176.0404,-80.1296,90.0427,59.93229101,10.71991311,0.0
6.502764,-0.7957,-0.0403,-0.1434,1.9348,-1.0584,-0.4062,-0.0078,-1.3849,0.0675,980.7166,38.34,-1.98,15.48,46.0,266.0208,-176.1211,-84.1385,98.1579,59.93229101,10.71991311,0.0
6.559669,-1.0633,0.0374,0.0178,-0.6477,-0.2392,0.7303,0.0545,0.1948,-0.0583,980.7463,38.22,-2.1,13.38,46.0,267.34,-176.4599,-86.7463,98.1579,59.93229101,10.71991311,0.0
6.621224,-0.9697,0.0655,-0.0982,0.2465,0.0334,-0.0965,0.0796,0.7348,0.073,980.7463,38.94,-0.72,12.6,46.0,267.9584,-176.4442,-84.9244,98.1579,59.93229101,10.71991311,0.0
6.68048,-1.0505,0.1202,-0.1104,-0.5761,0.5504,0.0636,-0.0536,0.1258,-0.0089,980.7205,38.16,-2.34,13.98,46.0,268.1066,-176.3312,-83.2766,98.1579,59.93229101,10.71991311,0.0
6.74085,-0.9775,0.0415,-0.1649,0.138,-0.221,-0.4556,-0.0536,0.1258,-0.0089,980.7205,38.52,-2.1,14.04,33.0,267.9618,-176.3282,-83.1898,98.1579,59.93229101,10.71991311,0.0
6.801453,-1.01,0.0467,-0.1847,-0.2051,-0.1589,-0.4538,0.024,0.3756,0.0681,980.7051,38.88,-1.92,15.9,33.0,267.8969,-176.3973,-82.035,90.2537,59.93229101,10.71991311,0.0
6.861663,-0.9995,0.043,-0.1222,-0.1089,-0.2172,0.1966,0.1278,-0.3916,0.0125,980.7107,37.86,-3.48,17.64,33.0,266.9674,-176.2662,-81.8121,90.2537,59.93229101,10.71991311,0.0
6.921411,-0.9665,0.098,-0.0674,0.2394,0.3048,0.5365,0.0619,-0.0667,0.0791,980.7107,38.64,-2.22,16.98,23.0,266.9395,-176.1684,-82.9717,90.2537,59.93229101,10.71991311,0.0
6.982041,-0.8737,0.0249,-0.0472,1.15,-0.4266,0.72,-0.0096,-0.2744,-0.0021,980.6887,38.4,-2.34,15.48,23.0,266.8034,-176.0779,-83.0606,90.2537,59.93229101,10.71991311,0.0
7.041164,-0.5671,0.1195,-0.0772,4.1808,0.495,0.1835,-0.0163,-0.096,0.0052,980.6887,38.04,-2.1,13.8,23.0,267.233,-176.0488,-84.4859,90.2537,59.93229101,10.71991311,0.0
7.101725,-0.5671,0.138,-0.1353,4.158,0.6882,-0.1681,-0.2082,0.4569,0.1194,980.6887,37.2,-3.66,16.32,16.0,265.7162,-176.1145,-83.2011,82.3668,59.93229101,10.71991311,0.0
7.162653,-1.1925,-0.0669,-0.0674,-2.0022,-1.3041,0.7411,0.2372,0.8154,-0.0321,980.6953,37.8,-3.3,16.98,16.0,264.7051,-176.2109,-81.7631,82.3668,59.93229101,10.71991311,0.0
7.222404,-1.6413,0.2218,-0.3652,-6.3904,1.6393,-2.2004,-0.2045,-0.9775,-0.0657,980.6953,38.16,-2.16,16.5,16.0,266.4532,-176.8746,-81.9046,82.3668,59.93229101,10.71991311,0.0
7.280096,-2.6613,0.1417,-0.2775,-16.3444,0.8083,-1.7036,-0.1355,-0.5273,-0.142,980.7229,39.48,-0.72,13.92,16.0,266.2082,-176.6071,-84.0418,82.3668,59.93229101,10.71991311,0.0
7.342878,-2.7104,0.342,-0.1625,-16.771,2.9861,-1.1803,-0.1,-1.2096,-0.0907,980.7234,37.38,-1.62,13.26,13.0,268.7399,-177.8622,-87.5913,82.3668,59.93229101,10.71991311,0.0
7.40039,-0.7354,0.0682,-0.2792,2.5807,0.3191,-3.2388,-0.4073,-0.5835,0.0296,980.7234,36.78,-1.32,9.3,13.0,270.0714,-2.0386,-87.0628,76.6753,59.93229101,10.71991311,0.0
7.462576,0.3655,-0.1253,-0.1598,13.3625,-1.7715,-2.0252,-0.141,0.0335,0.4163,980.7246,37.08,-0.24,8.1,13.0,270.5464,-3.1757,-87.3106,76.6753,59.93229101,10.71991311,0.0
7.520652,-0.2612,0.1031,0.0623,7.2301,0.4635,0.4171,-0.2253,0.9297,-0.3021,980.7246,36.3,-2.76,9.96,22.0,268.8614,-3.1968,-88.8681,76.6753,59.93229101,10.71991311,0.0
7.582932,0.0259,-0.0831,0.1141,10.0427,-1.2933,1.4608,-0.017,0.7537,0.0583,980.7043,36.24,-1.5,12.3,22.0,266.6114,-177.1987,-87.9951,76.6753,59.93229101,10.71991311,0.0
7.643633,0.163,-0.0479,-0.0281,11.3811,-0.9217,0.2094,-0.1587,-0.0325,-0.2385,980.709,38.4,-0.18,13.44,22.0,268.4704,-177.3555,-87.1637,76.6753,59.93229101,10.71991311,0.0
7.700488,-0.0694,0.0472,0.052,9.1085,0.1322,1.0069,-0.1703,-0.1644,-0.2899,980.709,36.6,-0.18,12.9,18.0,270.2396,-178.0726,-87.0938,72.3196,59.93229101,10.71991311,0.0
7.760551,-2.6833,-0.0142,-0.536,-16.5279,-0.3363,-4.4127,-0.0518,2.4489,-0.2337,980.688,37.62,1.38,13.86,18.0,271.2829,-178.8463,-85.0825,72.3196,59.93229101,10.71991311,0.0
7.822966,-2.3176,-0.0931,-0.2741,-13.0001,-1.002,-1.3296,-0.4177,-2.2236,0.0021,980.688,38.82,1.62,18.84,18.0,273.4943,-179.4755,-82.0476,72.3196,59.93229101,10.71991311,0.0
7.882423,-1.6721,0.1131,-0.1029,-6.7144,0.89,0.5957,0.4052,-0.4326,0.3186,980.6814,37.08,0.24,17.82,18.0,273.637,-178.7229,-80.5861,72.3196,59.93229101,10.71991311,0.0
7.942038,-1.1497,-0.086,-0.0967,-1.5173,-1.1471,0.058,0.407,0.4263,0.0687,980.6848,37.74,0.06,16.74,12.0,273.7487,-178.2217,-84.1086,72.3196,59.93229101,10.71991311,0.0
7.999658,-0.9216,0.0679,-0.1165,0.7165,0.4021,-0.1019,0.3178,-0.603,0.1579,980.6848,37.62,0.06,15.84,12.0,276.0593,-178.4606,-83.9096,78.9504,59.93229101,10.71991311,0.0
8.061107,-0.7642,0.0232,-0.173,2.2608,-0.1772,-0.7251,0.3001,0.4147,0.1683,980.6792,38.04,-0.66,15.3,12.0,275.1462,-177.635,-84.3189,78.9504,59.93229101,10.71991311,0.0
8.120837,-0.935,0.0352,-0.1693,0.5538,-0.0855,-0.4058,0.2372,0.1154,0.0363,980.6792,37.26,-1.98,17.7,15.0,274.2586,-177.4856,-82.6501,78.9504,59.93229101,10.71991311,0.0
8.180855,-0.8065,0.065,-0.1361,1.8266,0.1782,-0.2007,0.1297,-0.4491,0.1188,980.6702,38.04,-1.62,16.56,15.0,272.8364,-177.3193,-83.3589,78.9504,59.93229101,10.71991311,0.0
8.243531,-0.7586,0.0508,-0.0537,2.3171,-0.0459,0.3585,0.0502,-0.468,0.1255,980.667,38.7,-1.62,15.06,15.0,271.5341,-176.8207,-84.8129,78.9504,59.93229101,10.71991311,0.0
8.301043,-0.9924,-0.001,-0.1639,0.0372,-0.5855,-0.8811,0.1095,0.0647,-0.0064,980.667,37.2,-3.36,16.32,16.0,270.3395,-176.6333,-85.7503,72.8647,59.93229101,10.71991311,0.0
8.361043,-1.0366,0.14,0.0071,-0.4292,0.8642,1.185,0.3404,0.3377,-0.0589,980.678,38.28,-1.74,14.28,16.0,270.9462,-177.0325,-83.4593,72.8647,59.93229101,10.71991311,0.0
8.421029,-0.7166,0.0002,-0.1339,2.7488,-0.4498,-0.6145,-0.3053,-0.7056,-0.1775,980.678,38.46,-1.32,13.74,16.0,271.8336,-177.3573,-85.9172,72.8647,59.93229101,10.71991311,0.0
8.482304,-1.0962,0.0569,-0.086,-0.9652,0.1546,-0.2098,0.1321,0.8454,-0.0797,980.6895,37.98,-1.08,11.04,16.0,271.4004,-177.6431,-86.2962,72.8647,59.93229101,10.71991311,0.0
8.542341,-0.9773,-0.0039,-0.086,0.1774,-0.3346,0.1226,0.1248,-0.1766,-0.1964,980.6763,37.14,-1.92,14.34,15.0,271.9328,-178.2689,-84.348,72.8647,59.93229101,10.71991311,0.0
8.600277,-1.0002,0.0286,-0.0767,-0.0287,0.0721,0.0267,-0.0188,-0.2029,-0.0583,980.6763,38.7,1.62,12.24,15.0,273.0632,-178.7846,-85.446,71.2915,59.93229101,10.71991311,0.0
8.660125,-1.0366,0.0161,-0.0679,-0.3833,-0.0452,0.0868,0.016,0.0891,-0.0186,980.6741,37.5,-0.84,13.56,15.0,272.6723,-178.8128,-85.5986,71.2915,59.93229101,10.71991311,0.0
8.721367,-1.0039,0.0467,-0.0833,-0.0591,0.271,-0.1044,-0.0701,-0.1876,-0.0131,980.6741,38.94,0.12,12.36,15.0,272.9992,-178.9113,-85.8357,71.2915,59.93229101,10.71991311,0.0
8.779837,-1.0166,0.0472,-0.073,-0.1779,0.2575,-0.092,-0.0628,-0.1668,0.0345,980.679,37.5,-0.96,13.56,15.0,272.709,-178.8047,-86.352,71.2915,59.93229101,10.71991311,0.0
8.840881,-1.0129,0.0249,-0.0508,-0.1359,0.0081,0.0073,-0.0732,-0.2328,0.0596,980.6895,37.62,-1.32,15.54,15.0,272.1436,-178.6204,-87.0458,71.2915,59.93229101,10.71991311,0.0
8.901714,-1.0044,0.0396,-0.0611,-0.0469,0.1233,-0.2264,-0.0762,-0.3342,0.0241,980.6895,38.04,-0.6,11.1,15.0,271.1799,-178.4539,-87.8247,64.2879,59.93229101,10.71991311,0.0
8.961405,-1.0266,0.0107,-0.0486,-0.2612,-0.1971,-0.2588,0.0111,-0.1583,0.0571,980.6941,37.08,-0.6,10.5,15.0,271.5561,-178.2328,-88.7275,64.2879,59.93229101,10.71991311,0.0
9.020913,-1.0232,0.0616,-0.0298,-0.2281,0.2684,-0.1056,0.0643,-0.2163,0.1042,980.6941,37.5,-1.08,10.38,15.0,272.3962,-178.0429,-88.9098,64.2879,59.93229101,10.71991311,0.0
9.080026,-0.9748,0.0625,-0.0188,0.245,0.2098,-0.1282,0.0509,-0.3794,0.0223,980.7097,36.78,-1.62,10.68,15.0,270.3226,-177.6439,-89.6717,64.2879,59.93229101,10.71991311,0.0
9.145366,-1.0239,0.077,0.0049,-0.2384,0.3103,-0.0583,0.1437,-0.1534,0.037,980.7332,36.3,-2.7,10.38,16.0,268.6254,-2.5943,-89.3792,64.2879,59.93229101,10.71991311,0.0
9.200977,-0.976,0.0606,0.0379,0.229,0.1261,0.208,0.0967,-0.1907,-0.0315,980.7332,35.1,-2.94,10.2,16.0,267.8804,-2.7336,-89.046,59.2717,59.93229101,10.71991311,0.0
9.262299,-1.0139,0.0726,0.0293,-0.1438,0.2493,0.0331,0.1199,-0.1552,-0.0192,980.7244,36.06,-2.64,7.98,16.0,267.8922,-2.6988,-88.5131,59.2717,59.93229101,10.71991311,0.0
9.32127,-1.0007,0.0821,0.0349,-0.0162,0.3479,0.0206,-0.0573,-0.1974,-0.0699,980.7244,36.6,-1.32,8.58,19.0,270.2462,-2.6684,-88.1175,59.2717,59.93229101,10.71991311,0.0
9.381441,-0.9887,0.0484,0.0279,0.0947,0.0611,-0.2424,0.0026,0.1306,-0.0034,980.7261,36.36,-1.26,6.3,19.0,271.5818,-2.4133,-86.9852,59.2717,59.93229101,10.71991311,0.0
9.450186,-1.009,0.0704,0.0437,-0.0997,0.2791,-0.0011,-0.0573,0.0384,-0.0522,980.7427,36.48,-1.44,6.3,19.0,272.1697,-2.3987,-87.4868,59.2717,59.93229101,10.71991311,0.0
9.501585,-0.9966,0.041,0.041,0.0262,0.0105,0.0501,-0.0896,0.3041,-0.0278,980.7427,35.76,-2.58,8.16,20.0,271.4992,-2.2895,-87.9405,70.0227,59.93229101,10.71991311,0.0
9.562124,-1.0156,0.0308,0.0154,-0.1556,-0.0867,-0.0207,-0.0878,0.2308,0.0046,980.7454,35.94,-2.76,9.3,20.0,270.3168,-2.2696,-88.997,70.0227,59.93229101,10.71991311,0.0
9.620948,-0.9951,0.0313,0.0122,0.0459,-0.0976,0.0146,-0.0958,0.0354,0.0455,980.7454,37.8,-0.18,7.86,20.0,271.1968,-2.3613,-89.3855,70.0227,59.93229101,10.71991311,0.0
9.678458,-1.0029,0.0518,0.01,-0.189,0.009,0.2031,-0.0958,0.0354,0.0455,980.7441,36.12,-1.5,8.46,20.0,271.1968,-2.3613,-89.3855,70.0227,59.93229101,10.71991311,0.0
9.744151,-0.9856,0.0472,-0.0056,0.1387,0.0317,-0.0337,-0.0206,0.1697,0.0284,980.7502,36.3,-3.3,12.72,20.0,266.9205,-177.4849,-89.8749,70.0227,59.93229101,10.71991311,0.0
9.799319,-1.0178,0.0354,0.0139,-0.1775,-0.0831,0.1897,-0.0353,-0.0086,-0.0229,980.7502,36.18,-1.68,10.14,20.0,269.7109,-177.4856,-89.6884,63.0846,59.93229101,10.71991311,0.0
9.86191,-1.011,0.041,-0.0027,-0.11,-0.0122,0.0595,-0.0127,0.1728,-0.0308,980.7468,37.62,0.12,9.72,20.0,274.64,-177.578,-89.4981,63.0846,59.93229101,10.71991311,0.0
9.920616,-1.0139,0.0545,-0.0129,-0.1388,0.1347,0.019,0.0173,0.0066,-0.0235,980.7468,36.9,-1.38,10.92,20.0,270.8558,-177.6669,-89.1469,63.0846,59.93229101,10.71991311,0.0
9.980988,-1.0188,0.0599,-0.0149,-0.1861,0.1983,-0.0122,0.0002,0.0262,-0.0284,980.7346,37.02,-1.26,10.86,20.0,271.6649,-177.7307,-89.2175,63.0846,59.93229101,10.71991311,0.0
10.041385,-0.9973,0.0169,-0.0291,0.0241,-0.2163,-0.1053,0.0338,0.0958,-0.0321,980.7397,37.14,-1.38,10.8,20.0,270.9103,-177.7708,-88.9495,63.0846,59.93229101,10.71991311,0.0
10.100949,-0.9797,0.0034,-0.031,0.1972,-0.3068,-0.0859,0.0338,0.0958,-0.0321,980.7397,36.78,-1.14,12.48,26.0,269.6018,-178.0111,-88.7247,57.6387,59.93229101,10.71991311,0.0
10.160549,-1.0371,0.063,-0.032,-0.3655,0.3188,-0.0373,0.0808,0.05,-0.0809,980.7666,37.38,-0.42,11.22,26.0,271.0654,-178.2536,-88.3845,57.6387,59.93229101,10.71991311,0.0
10.221466,-0.9985,-0.0042,-0.0586,0.0127,-0.3069,-0.2625,-0.0017,0.0891,-0.0614,980.7666,36.72,-1.2,11.04,26.0,269.7425,-178.4445,-88.1755,57.6387,59.93229101,10.71991311,0.0
10.280405,-0.987,-0.012,-0.0305,0.1238,-0.3336,0.0858,0.0759,0.0396,-0.0559,980.7524,37.5,-0.6,11.46,26.0,268.8,-178.7365,-87.7492,57.6387,59.93229101,10.71991311,0.0
10.342978,-1.019,0.0161,-0.033,-0.19,-0.0123,0.0888,0.1865,0.0635,0.0107,980.7378,37.5,0.36,10.92,30.0,272.9654,-179.0047,-87.5918,57.6387,59.93229101,10.71991311,0.0
10.400413,-1.0185,0.0511,-0.0743,-0.1866,0.338,-0.2819,0.1804,0.1594,-0.0174,980.7378,38.58,0.42,9.96,30.0,276.563,-179.0509,-87.3931,54.4432,59.93229101,10.71991311,0.0
10.462047,-0.9907,0.01,-0.0816,0.082,-0.0526,-0.2634,0.104,0.0738,-0.0308,980.7456,37.74,-0.36,10.44,30.0,274.1512,-179.119,-86.865,54.4432,59.93229101,10.71991311,0.0
10.520689,-1.0603,0.0078,-0.0799,-0.6069,-0.0649,-0.1354,0.104,0.0738,-0.0308,980.7456,37.44,-0.06,11.4,52.0,273.1443,-179.1734,-86.2137,54.4432,59.93229101,10.71991311,0.0
10.581459,-0.9675,0.0413,-0.0733,0.3011,0.2212,-0.0549,0.1455,-0.0428,0.0553,980.7493,38.22,0.3,11.28,52.0,276.7879,-178.9286,-86.1208,54.4432,59.93229101,10.71991311,0.0
10.643443,-1.0498,0.043,-0.0889,-0.512,0.2104,-0.1291,0.0411,0.2559,0.0382,980.7664,38.4,0.24,11.34,52.0,277.0024,-178.767,-85.6574,54.4432,59.93229101,10.71991311,0.0
10.701501,-1.01,0.0235,-0.086,-0.1293,-0.0129,-0.0149,0.0038,-0.096,0.04,980.7664,37.56,-0.78,12.06,47.0,272.3754,-178.5814,-85.1558,52.0931,59.93229101,10.71991311,0.0
10.760689,-1.0606,0.0537,-0.0559,-0.6214,0.2627,0.2304,-0.1043,0.061,0.0376,980.7595,38.1,-1.08,13.98,47.0,271.6898,-178.457,-85.4441,52.0931,59.93229101,10.71991311,0.0
10.822226,-0.9843,0.0173,-0.0647,0.1259,-0.114,0.1326,-0.0542,-0.1827,0.0217,980.7595,37.8,-0.24,11.04,47.0,271.3308,-178.3405,-85.5121,52.0931,59.93229101,10.71991311,0.0
10.88196,-1.0181,0.0452,-0.0603,-0.1987,0.1331,0.0874,-0.1177,-0.0416,0.0278,980.7761,37.26,-0.72,11.28,47.0,271.1055,-178.1893,-86.0291,52.0931,59.93229101,10.71991311,0.0
10.943253,-0.9922,0.03,-0.0716,0.0567,-0.0323,-0.0559,-0.0958,-0.0844,0.018,980.78,38.34,-0.12,11.04,44.0,271.2136,-178.0903,-86.223,52.0931,59.93229101,10.71991311,0.0
11.002531,-1.0022,0.0381,-0.0528,-0.0414,0.0351,0.1225,-0.0322,0.0213,0.0376,980.78,37.32,-1.38,11.46,44.0,270.1277,-178.0224,-86.258,50.357,59.93229101,10.71991311,0.0
11.060579,-0.9997,0.0415,-0.0572,-0.0176,0.0438,0.067,-0.0121,0.0225,0.026,980.7795,37.62,-1.56,10.68,44.0,260.6462,-177.8772,-86.33,50.357,59.93229101,10.71991311,0.0
11.119517,-1.0017,0.0613,-0.0689,-0.0423,0.2195,0.0235,-0.0011,0.193,0.0241,980.7795,37.5,-1.44,11.76,48.0,265.5329,-177.7711,-85.9113,50.357,59.93229101,10.71991311,0.0
11.181937,-1.0088,0.0557,-0.0748,-0.1163,0.1401,0.0148,0.0099,0.0372,0.0302,980.7705,37.32,-1.92,13.74,48.0,263.7542,-177.6284,-85.6253,50.357,59.93229101,10.71991311,0.0
11.244602,-0.9978,0.0623,-0.0706,-0.0124,0.1661,0.083,0.0008,0.1093,0.0223,980.7817,38.04,-1.02,12.18,48.0,273.2156,-177.4027,-85.463,50.357,59.93229101,10.71991311,0.0
11.300046,-1.0027,0.0068,-0.1021,-0.0683,-0.4001,-0.1428,-0.0243,0.2296,-0.018,980.7817,37.44,-2.34,13.8,46.0,267.6893,-177.2698,-84.9749,49.1834,59.93229101,10.71991311,0.0
11.360698,-1.0061,0.0095,-0.1099,-0.1088,-0.3634,-0.1376,-0.0261,0.1117,0.0076,980.7517,37.56,-2.46,13.92,46.0,267.0764,-177.3304,-84.4948,49.1834,59.93229101,10.71991311,0.0
11.422028,-0.9961,0.0073,-0.1109,-0.0149,-0.3336,-0.0817,-0.0499,0.1129,-0.0425,980.7517,38.64,-1.2,13.5,46.0,266.717,-177.6308,-84.1114,49.1834,59.93229101,10.71991311,0.0
11.480136,-1.0161,0.0071,-0.1287,-0.2145,-0.2822,-0.2057,-0.0951,0.0628,-0.0571,980.7649,39.0,-0.84,13.62,46.0,269.467,-177.9451,-83.8143,49.1834,59.93229101,10.71991311,0.0
11.541484,-1.0259,-0.0193,-0.1266,-0.3129,-0.4648,-0.1388,-0.0457,0.0109,-0.0773,980.7598,38.94,-0.24,13.14,44.0,272.0361,-178.389,-83.5489,49.1834,59.93229101,10.71991311,0.0
11.600106,-1.0293,0.0022,-0.1148,-0.3444,-0.1708,-0.0238,0.0118,-0.0422,-0.0229,980.7598,37.92,-0.96,13.92,44.0,271.748,-178.876,-83.5494,49.9056,59.93229101,10.71991311,0.0
11.659314,-0.9763,-0.0144,-0.129,0.1752,-0.3015,-0.1584,0.0582,0.0604,0.0388,980.7659,37.08,-1.26,14.94,44.0,269.1359,-179.0636,-83.5252,49.9056,59.93229101,10.71991311,0.0
11.719087,-0.9958,0.0217,-0.1285,-0.0248,0.0878,-0.0773,0.0582,0.0604,0.0388,980.7659,38.22,-0.72,14.28,39.0,266.7057,-179.268,-83.0763,49.9056,59.93229101,10.71991311,0.0
11.781433,-0.9997,0.0034,-0.1207,-0.0635,-0.0872,0.0033,-0.0224,-0.0465,0.0009,980.7444,37.86,-0.54,13.98,39.0,268.8455,-179.2945,-83.0528,49.9056,59.93229101,10.71991311,0.0
11.84181,-1.031,0.0603,-0.1366,-0.3724,0.4609,-0.1336,-0.0224,-0.0465,0.0009,980.728,38.4,-0.12,14.16,39.0,269.1072,-179.2379,-82.9424,49.9056,59.93229101,10.71991311,0.0
11.902129,-0.9904,0.0484,-0.1336,0.0202,0.245,-0.0803,-0.0328,0.0207,0.0736,980.728,38.22,-0.9,14.46,37.0,268.773,-178.6619,-82.7966,50.0657,59.93229101,10.71991311,0.0
11.960761,-1.0119,0.0545,-0.1339,-0.1946,0.2237,-0.0686,-0.0524,0.0066,0.0443,980.7429,37.32,-2.16,15.0,37.0,266.8132,-178.1875,-82.7118,50.0657,59.93229101,10.71991311,0.0
12.020522,-1.0361,0.073,-0.109,-0.4316,0.3398,0.1575,-0.0664,-0.0899,0.0486,980.7429,37.8,-1.14,14.64,37.0,267.9496,-177.8021,-82.8169,50.0657,59.93229101,10.71991311,0.0
12.08016,-0.9953,0.0928,-0.1202,-0.0254,0.458,-0.0311,-0.0976,-0.088,0.037,980.7393,37.56,-2.4,17.34,37.0,267.5299,-177.3596,-83.2769,50.0657,59.93229101,10.71991311,0.0
12.142292,-0.9626,0.0811,-0.1063,0.2952,0.2548,0.0687,-0.1031,-0.0758,0.0211,980.7424,38.4,-1.56,15.48,37.0,269.2098,-176.8431,-83.4899,50.0657,59.93229101,10.71991311,0.0
12.200792,-0.9492,0.0767,-0.1121,0.4289,0.1553,-0.0364,-0.0994,-0.0074,0.0082,980.7424,37.86,-1.56,14.58,37.0,269.4715,-176.5128,-83.768,49.4255,59.93229101,10.71991311,0.0
12.261304,-1.0611,0.0684,-0.1102,-0.6737,0.0338,0.0141,-0.089,0.1679,0.0254,980.73,37.26,-1.62,14.46,37.0,268.5217,-176.2784,-83.5819,49.4255,59.93229101,10.71991311,0.0
12.321485,-0.998,0.043,-0.0928,-0.06,-0.2322,0.2095,-0.0811,-0.1546,0.0119,980.73,38.34,-1.38,14.46,39.0,268.7619,-176.1788,-83.4316,49.4255,59.93229101,10.71991311,0.0
12.386439,-1.0085,0.0535,-0.1246,-0.1532,-0.1266,-0.1881,0.0301,0.0036,0.0308,980.7249,38.22,-0.96,15.0,39.0,273.1675,-176.1938,-83.9406,49.4255,59.93229101,10.71991311,0.0
12.442081,-1.0054,0.0506,-0.1309,-0.1237,-0.1574,-0.2372,0.0747,-0.0777,0.0266,980.7314,38.46,-1.2,14.04,39.0,273.0655,-176.1822,-83.8628,49.4255,59.93229101,10.71991311,0.0
12.500287,-0.9953,0.052,-0.1014,-0.0168,-0.1303,-0.0232,0.1071,-0.2041,0.0162,980.7314,37.74,-1.92,14.88,39.0,272.3926,-176.2566,-84.309,49.9381,59.93229101,10.71991311,0.0
12.560733,-1.0112,0.0594,-0.1073,-0.1668,-0.0469,-0.1303,0.0875,0.0922,-0.026,980.7192,37.74,-1.92,13.5,39.0,272.5657,-176.3242,-84.6011,49.9381,59.93229101,10.71991311,0.0
12.620026,-1.0149,0.0596,-0.1014,-0.207,-0.0184,-0.0123,0.0429,0.0415,-0.0382,980.7192,38.7,-1.2,13.14,39.0,275.2863,-176.4769,-84.2465,49.9381,59.93229101,10.71991311,0.0
12.682294,-0.9694,0.0696,-0.1165,0.2357,0.0977,-0.1245,-0.0102,0.0799,-0.0247,980.7646,38.34,-2.22,14.64,39.0,274.371,-176.5821,-84.0334,49.9381,59.93229101,10.71991311,0.0
12.743931,-0.9689,0.0657,-0.1297,0.2339,0.0607,-0.1926,-0.0469,0.1551,0.0254,980.762,38.16,-1.8,14.28,40.0,273.411,-176.5897,-83.6733,49.9381,59.93229101,10.71991311,0.0
12.802906,-1.0488,0.0875,-0.1537,-0.5646,0.2539,-0.3045,-0.0786,0.273,0.0272,980.762,37.5,-2.22,15.3,40.0,271.9176,-176.4731,-82.9491,49.2471,59.93229101,10.71991311,0.0
12.860252,-1.0205,0.0525,-0.1224,-0.3094,-0.1244,0.1559,-0.1776,0.1258,0.0089,980.7695,38.88,-1.2,15.84,40.0,270.6706,-176.2628,-82.0385,49.2471,59.93229101,10.71991311,0.0
12.923195,-0.9975,0.0401,-0.1427,-0.0826,-0.2621,-0.0627,-0.1043,-0.0056,0.0345,980.7695,38.16,-1.14,15.54,37.0,271.1322,-176.1716,-82.1555,49.2471,59.93229101,10.71991311,0.0
12.981099,-1.011,0.0508,-0.1495,-0.2212,-0.1675,-0.0863,-0.0243,0.1264,0.0009,980.7593,38.16,-1.62,15.48,37.0,270.7339,-176.1086,-81.8978,49.2471,59.93229101,10.71991311,0.0
13.040901,-1.019,0.0569,-0.1637,-0.3053,-0.1046,-0.1877,0.005,-0.0178,0.0131,980.7622,38.76,-1.56,16.68,37.0,270.3051,-176.1265,-81.6766,49.2471,59.93229101,10.71991311,0.0
13.101489,-0.9773,0.0493,-0.15,0.1112,-0.1872,-0.1071,0.0374,-0.1418,0.0235,980.7622,37.92,-2.28,18.24,33.0,269.9047,-176.0773,-81.9924,48.9545,59.93229101,10.71991311,0.0
13.163365,-1.0173,0.0472,-0.1522,-0.2782,-0.2065,-0.1509,0.1235,0.0659,0.0357,980.7595,37.86,-2.7,16.5,33.0,266.6919,-176.0909,-82.1237,48.9545,59.93229101,10.71991311,0.0
13.219744,-0.9895,0.0613,-0.1634,-0.0147,-0.0569,-0.1896,0.1364,0.0567,0.0571,980.7595,38.7,-1.32,15.24,33.0,270.1826,-176.1537,-81.7021,48.9545,59.93229101,10.71991311,0.0
13.282399,-0.989,0.1168,-0.1275,-0.0098,0.4808,0.159,-0.0615,-0.1381,-0.0315,980.7688,38.94,-2.22,15.6,33.0,269.187,-176.1199,-81.7216,48.9545,59.93229101,10.71991311,0.0
13.341838,-1.0176,0.0569,-0.1373,-0.2845,-0.1206,0.018,-0.1202,0.0952,-0.0418,980.7742,38.58,-1.56,16.74,34.0,269.2519,-176.033,-81.988,48.9545,59.93229101,10.71991311,0.0
13.399702,-1.0476,0.0542,-0.1427,-0.5862,-0.1295,0.0241,-0.0646,0.039,-0.0516,980.7742,37.92,-2.58,15.72,34.0,265.1342,-176.1348,-81.6415,54.1439,59.93229101,10.71991311,0.0
13.462439,-0.9616,0.0811,-0.1393,0.2628,0.1521,0.023,-0.0805,-0.1131,-0.0199,980.7725,38.4,-1.92,17.04,34.0,266.2026,-176.2417,-81.8474,54.1439,59.93229101,10.71991311,0.0
13.522625,-0.977,0.0454,-0.1143,0.12,-0.2113,0.2027,0.0356,-0.0899,0.0449,980.7725,37.92,-1.32,15.48,33.0,270.1094,-176.1605,-82.2281,54.1439,59.93229101,10.71991311,0.0
13.58017,-1.0347,0.0858,-0.1637,-0.4399,0.1571,-0.3327,0.159,-0.0587,0.0822,980.7744,37.74,-2.58,16.92,33.0,268.9999,-176.0047,-82.5325,54.1439,59.93229101,10.71991311,0.0
13.641409,-1.0615,0.0953,-0.1209,-0.6973,0.2562,0.0431,-0.0139,-0.2573,-0.0889,980.7756,38.22,-2.16,15.9,33.0,267.4612,-176.0386,-82.7881,54.1439,59.93229101,10.71991311,0.0
13.702482,-0.9352,0.0616,-0.1229,0.5639,-0.0327,-0.1512,0.0276,-0.1009,-0.0058,980.7756,38.46,-1.68,14.82,36.0,268.3094,-176.2813,-83.8222,52.3395,59.93229101,10.71991311,0.0
13.760566,-0.988,0.129,-0.1471,0.039,0.6193,-0.3245,0.0063,0.2522,-0.0076,980.7808,37.62,-2.94,17.76,36.0,267.9705,-176.2299,-83.4468,52.3395,59.93229101,10.71991311,0.0
13.819196,-1.0256,0.0906,-0.1346,-0.349,0.2224,-0.0564,0.0063,0.2522,-0.0076,980.7808,38.64,-1.56,15.06,36.0,267.1356,-176.1065,-82.584,52.3395,59.93229101,10.71991311,0.0
13.880438,-1.0134,0.0623,-0.1224,-0.2262,-0.081,0.0254,-0.0585,-0.085,0.0241,980.761,38.04,-1.5,15.42,36.0,266.9504,-175.9562,-82.8067,52.3395,59.93229101,10.71991311,0.0
13.943783,-0.9907,0.0545,-0.12,-0.0047,-0.1756,0.0478,-0.0585,-0.085,0.0241,980.7539,39.3,-1.26,14.88,36.0,267.5281,-175.851,-82.8151,52.3395,59.93229101,10.71991311,0.0
14.002288,-1.0085,0.0723,-0.1246,-0.1866,-0.0194,0.0471,0.0392,0.0494,0.0528,980.7539,38.1,-3.3,16.68,36.0,266.5431,-175.742,-82.5493,51.3033,59.93229101,10.71991311,0.0
14.061196,-1.0154,0.084,-0.1444,-0.2579,0.0739,-0.1267,0.0166,0.0549,0.0229,980.7473,37.86,-2.94,17.22,36.0,265.8119,-175.6158,-82.4289,51.3033,59.93229101,10.71991311,0.0
14.120728,-1.0168,0.0875,-0.1292,-0.2772,0.101,0.0548,-0.0072,-0.0221,0.0034,980.7473,37.98,-2.7,15.3,36.0,264.4697,-175.5777,-82.2332,51.3033,59.93229101,10.71991311,0.0
14.182437,-0.9584,0.0845,-0.1446,0.2962,0.0634,-0.1101,0.005,0.072,0.0357,980.7473,38.82,-2.58,17.58,36.0,264.8231,-175.5258,-82.3161,51.3033,59.93229101,10.71991311,0.0
14.242046,-0.9687,0.1116,-0.1444,0.1848,0.3037,-0.0439,-0.0231,0.1013,0.0254,980.7346,38.28,-2.4,16.44,36.0,265.0923,-175.377,-81.9365,51.3033,59.93229101,10.71991311,0.0
14.302088,-1.0325,0.0684,-0.1331,-0.4529,-0.1495,0.137,-0.0389,0.072,0.0107,980.7346,38.58,-2.28,16.74,34.0,265.3194,-175.2043,-81.5155,51.1068,59.93229101,10.71991311,0.0
14.363182,-0.998,0.0508,-0.1493,-0.1106,-0.3139,-0.0479,-0.0646,-0.0514,-0.0486,980.7405,38.4,-2.82,17.04,34.0,263.9696,-175.2512,-81.6753,51.1068,59.93229101,10.71991311,0.0
14.421531,-1.008,0.0591,-0.172,-0.2072,-0.1961,-0.2607,0.0215,0.1154,-0.0247,980.7405,37.8,-2.88,16.26,34.0,265.597,-175.4641,-81.6195,51.1068,59.93229101,10.71991311,0.0
14.481602,-0.9922,0.0782,-0.1708,-0.0632,0.0205,-0.157,0.0258,0.0793,-0.0266,980.7561,38.58,-1.98,15.42,34.0,265.8857,-175.6396,-81.0775,51.1068,59.93229101,10.71991311,0.0
14.542082,-0.9861,0.086,-0.1713,-0.0032,0.1213,-0.1516,-0.0078,-0.0398,-0.0394,980.749,38.28,-2.22,17.16,32.0,269.6187,-175.7809,-81.0189,51.1068,59.93229101,10.71991311,0.0
14.600679,-0.9648,0.1053,-0.1725,0.205,0.3138,-0.1609,-0.0658,0.0738,-0.0351,980.749,38.82,-1.92,17.4,32.0,268.9817,-175.8008,-81.0035,52.4305,59.93229101,10.71991311,0.0
14.658625,-1.03,0.0806,-0.1703,-0.4471,0.0503,-0.0703,-0.0658,0.0738,-0.0351,980.7473,38.76,-1.68,17.7,32.0,268.3385,-175.6736,-80.5922,52.4305,59.93229101,10.71991311,0.0
14.719832,-1.001,0.0447,-0.1546,-0.1642,-0.2882,0.101,-0.0524,-0.0294,-0.0492,980.7473,37.62,-2.16,16.98,32.0,268.199,-175.7527,-80.4859,52.4305,59.93229101,10.71991311,0.0
14.784181,-0.9858,0.0401,-0.1634,-0.0083,-0.2689,-0.0018,0.0283,0.0476,-0.0541,980.7456,38.64,-2.28,17.28,32.0,268.0045,-176.132,-80.5885,52.4305,59.93229101,10.71991311,0.0
14.843578,-1.0024,0.0479,-0.1661,-0.172,-0.1293,0.0018,0.0765,0.0463,-0.0388,980.7356,39.06,-1.62,17.34,32.0,268.8962,-176.5005,-80.4147,52.4305,59.93229101,10.71991311,0.0
14.901734,-0.9992,0.0493,-0.1747,-0.1415,-0.0744,-0.0638,0.1009,0.0134,-0.0272,980.7356,37.5,-2.28,17.82,30.0,268.3793,-176.7376,-80.3096,52.1837,59.93229101,10.71991311,0.0
14.965467,-0.999,0.0552,-0.1678,-0.138,0.0092,0.0054,0.0893,-0.027,-0.0199,980.7498,38.52,-1.32,17.58,30.0,268.797,-176.8911,-80.2981,52.1837,59.93229101,10.71991311,0.0
15.020318,-0.9922,0.0689,-0.1793,-0.0725,0.1579,-0.0935,0.1266,0.0781,0.029,980.7498,37.74,-2.16,18.24,30.0,267.1167,-176.9765,-80.2182,52.1837,59.93229101,10.71991311,0.0
15.07991,-1.0112,0.0704,-0.1781,-0.2656,0.1613,-0.0489,0.0429,0.0299,0.0107,980.7393,35.1,-5.22,20.16,30.0,263.0989,-176.9125,-80.0233,52.1837,59.93229101,10.71991311,0.0
15.142062,-0.9882,0.0579,-0.1849,-0.0426,0.0242,-0.1089,0.0075,0.0042,0.0162,980.7314,36.84,-3.54,18.36,30.0,263.0259,-176.8248,-79.9809,52.1837,59.93229101,10.71991311,0.0
15.202362,-0.9878,0.0567,-0.1847,-0.0404,-0.0003,-0.0959,-0.0023,0.0097,0.0199,980.7314,37.92,-2.34,18.72,30.0,264.1682,-176.7515,-79.9174,51.9012,59.93229101,10.71991311,0.0
15.259092,-1.0034,0.0591,-0.1906,-0.1951,0.0121,-0.1487,-0.0121,-0.0612,0.0229,980.7312,36.78,-3.9,20.46,30.0,263.2748,-176.6835,-79.8886,51.9012,59.93229101,10.71991311,0.0
15.320946,-0.9944,0.0599,-0.1661,-0.0988,0.0064,0.0425,-0.0261,-0.0642,0.0137,980.7312,37.2,-3.06,19.5,29.0,262.2213,-176.6081,-80.1742,51.9012,59.93229101,10.71991311,0.0
15.380715,-0.9929,0.0599,-0.1717,-0.0824,-0.0072,-0.0296,0.0057,-0.0153,0.026,980.7449,38.7,-2.28,17.28,29.0,262.0218,-176.5284,-80.2749,51.9012,59.93229101,10.71991311,0.0
15.441219,-0.9882,0.066,-0.1617,-0.0315,0.0407,0.0326,0.0179,-0.1192,0.0229,980.7505,38.1,-2.34,16.44,29.0,265.9511,-176.4587,-80.4877,51.9012,59.93229101,10.71991311,0.0
15.500869,-0.9887,0.0821,-0.1666,-0.0312,0.1841,-0.0518,0.0087,-0.0019,0.0186,980.7505,38.1,-2.4,16.8,30.0,264.6441,-176.373,-80.7031,51.9012,59.93229101,10.71991311,0.0
15.559983,-0.9914,0.0784,-0.1605,-0.0586,0.1275,0.0061,-0.0292,-0.0325,0.0156,980.728,37.98,-2.1,16.98,30.0,265.7598,-176.2521,-80.7138,51.2085,59.93229101,10.71991311,0.0
15.621067,-0.9885,0.0682,-0.1625,-0.0268,0.0038,-0.0414,-0.0322,-0.0441,0.0321,980.728,38.1,-2.16,17.28,30.0,267.0078,-176.1167,-80.8801,51.2085,59.93229101,10.71991311,0.0
15.67992,-1.001,0.0628,-0.1566,-0.1476,-0.0743,-0.0032,-0.0163,-0.0544,0.0351,980.7368,37.92,-2.64,17.22,30.0,265.7467,-175.9678,-80.9932,51.2085,59.93229101,10.71991311,0.0
15.741412,-0.998,0.0823,-0.1593,-0.1127,0.0988,-0.0775,0.0429,-0.1021,0.0376,980.7278,38.22,-2.52,17.7,32.0,265.6943,-175.8596,-81.2759,51.2085,59.93229101,10.71991311,0.0
15.799666,-1.0127,0.0804,-0.1576,-0.2558,0.0741,-0.0675,0.0191,0.0335,-0.0015,980.7278,37.68,-2.94,17.94,32.0,264.5408,-175.8274,-81.3159,51.2085,59.93229101,10.71991311,0.0
15.861079,-0.9873,0.0767,-0.1617,-0.0013,0.0409,-0.1433,0.0118,-0.0874,-0.0107,980.7078,38.7,-2.28,16.8,32.0,265.2625,-175.8432,-81.524,54.8248,59.93229101,10.71991311,0.0
15.920548,-1.011,0.0826,-0.1322,-0.2299,0.1029,0.1244,0.0313,-0.0526,-0.0009,980.7078,37.56,-3.24,16.8,33.0,264.5071,-175.8698,-81.6545,54.8248,59.93229101,10.71991311,0.0
15.981404,-0.9887,0.0757,-0.1498,-0.0085,0.0315,-0.0745,0.0338,-0.0434,0.0125,980.71,38.16,-3.06,15.66,33.0,264.4422,-175.8439,-81.8114,54.8248,59.93229101,10.71991311,0.0
16.0443,-0.9863,0.0826,-0.1466,0.02,0.0966,-0.0762,-0.0176,-0.1204,-0.0211,980.7085,38.82,-2.64,15.96,33.0,265.9474,-175.8325,-82.0055,54.8248,59.93229101,10.71991311,0.0
16.101264,-1.0222,0.0826,-0.1307,-0.3219,0.1036,0.0092,-0.0145,-0.0923,-0.0186,980.7085,37.56,-3.78,17.88,36.0,263.3435,-175.8739,-82.4206,54.8248,59.93229101,10.71991311,0.0
16.161974,-0.997,0.075,-0.1319,-0.0772,0.0321,0.0128,-0.0298,0.0769,-0.0272,980.7144,38.16,-2.58,16.32,36.0,264.0328,-175.8896,-82.329,58.7659,59.93229101,10.71991311,0.0
16.219662,-1.0036,0.0733,-0.1187,-0.1386,0.0229,0.1225,-0.0188,-0.14,-0.0003,980.7144,38.46,-1.86,14.4,36.0,265.9626,-175.934,-82.4451,58.7659,59.93229101,10.71991311,0.0
16.279732,-0.9963,0.0757,-0.1256,-0.0618,0.0545,0.0213,0.0221,0.0427,-0.0052,980.7173,39.12,-2.16,14.76,36.0,267.8886,-175.9785,-82.6471,58.7659,59.93229101,10.71991311,0.0
16.347646,-1.0034,0.064,-0.141,-0.1351,-0.0602,-0.0999,0.0221,0.0427,-0.0052,980.7085,38.76,-2.28,15.24,40.0,266.6258,-175.98,-82.4723,58.7659,59.93229101,10.71991311,0.0
16.400668,-1.0049,0.0752,-0.1236,-0.1443,0.0592,0.0356,0.0221,-0.0728,-0.0131,980.7085,38.1,-2.46,14.52,40.0,266.9811,-176.0342,-82.6763,58.7659,59.93229101,10.71991311,0.0
16.461601,-0.9946,0.0777,-0.1312,-0.0449,0.0908,-0.0259,0.06,0.0714,0.0052,980.7097,39.42,-1.14,13.5,40.0,272.4989,-176.0794,-82.6017,59.8206,59.93229101,10.71991311,0.0
16.520221,-1.0034,0.0694,-0.152,-0.1342,0.0075,-0.2064,0.06,0.0714,0.0052,980.7097,36.9,-3.36,16.32,37.0,264.0346,-176.0681,-82.4656,59.8206,59.93229101,10.71991311,0.0
16.578703,-1.0002,0.0726,-0.1385,-0.1001,0.0477,-0.0927,0.0032,-0.0361,-0.0095,980.7046,37.56,-3.0,15.18,37.0,263.6826,-176.1211,-82.5726,59.8206,59.93229101,10.71991311,0.0
16.642826,-1.0107,0.0723,-0.1319,-0.2032,0.0532,-0.0227,0.005,0.0048,-0.0168,980.6968,37.26,-2.76,15.12,37.0,262.7472,-176.1675,-82.5414,59.8206,59.93229101,10.71991311,0.0
16.701204,-1.0049,0.0691,-0.1561,-0.1454,0.0271,-0.2599,-0.0047,0.0018,-0.0113,980.6968,38.58,-2.22,15.54,37.0,264.067,-176.1968,-82.5428,59.8206,59.93229101,10.71991311,0.0
16.761763,-1.0088,0.0718,-0.1261,-0.1797,0.0554,0.0043,-0.0078,-0.1058,-0.0015,980.6936,39.54,-1.98,14.46,37.0,267.413,-176.2086,-82.7212,60.5039,59.93229101,10.71991311,0.0
16.819038,-1.0054,0.0687,-0.1256,-0.1406,0.0221,-0.0359,0.0228,-0.0361,0.0137,980.6936,38.94,-1.86,13.5,37.0,268.2408,-176.1959,-82.9869,60.5039,59.93229101,10.71991311,0.0
16.879578,-0.9975,0.0708,-0.1263,-0.0627,0.0345,-0.0586,0.0063,-0.0483,0.015,980.7031,37.92,-2.58,14.1,37.0,267.6445,-176.1419,-83.0778,60.5039,59.93229101,10.71991311,0.0
16.942128,-1.0112,0.073,-0.1187,-0.1942,0.0468,-0.0111,0.0063,-0.0483,0.015,980.7075,37.14,-2.94,14.16,37.0,264.349,-176.088,-83.2349,60.5039,59.93229101,10.71991311,0.0
16.998552,-1.0032,0.0691,-0.1202,-0.1135,-0.0037,-0.0471,0.0099,-0.0514,0.0156,980.7075,38.7,-1.98,13.32,37.0,267.4537,-176.0163,-83.3624,60.5039,59.93229101,10.71991311,0.0
17.057664,-1.0068,0.0755,-0.1187,-0.1451,0.0465,-0.0786,0.0191,-0.0544,0.026,980.698,38.22,-2.46,14.7,37.0,267.2299,-175.9461,-83.6319,57.2636,59.93229101,10.71991311,0.0
17.119148,-1.0122,0.0755,-0.1029,-0.1972,0.0347,0.0643,0.0057,-0.0312,0.0113,980.698,37.62,-3.48,15.42,37.0,264.4493,-175.8768,-83.7063,57.2636,59.93229101,10.71991311,0.0
17.178353,-1.0012,0.0704,-0.1124,-0.0857,-0.0233,-0.0686,0.0295,-0.0593,0.0064,980.6863,38.1,-2.82,14.52,37.0,263.0765,-175.8318,-83.939,57.2636,59.93229101,10.71991311,0.0
17.241806,-0.9917,0.0777,-0.1092,0.0076,0.0423,-0.0413,0.0539,0.0256,0.0266,980.7061,38.76,-2.82,13.32,37.0,263.4864,-175.795,-83.961,57.2636,59.93229101,10.71991311,0.0
17.300215,-1.0097,0.086,-0.0999,-0.1709,0.123,0.0619,-0.006,-0.0251,-0.0217,980.7061,38.82,-1.86,13.44,39.0,266.4158,-175.7911,-83.889,57.2636,59.93229101,10.71991311,0.0
17.359129,-0.9941,0.0757,-0.1085,-0.0161,0.0275,-0.0335,-0.0231,0.0231,-0.0223,980.7019,38.1,-3.6,14.52,39.0,263.2449,-175.8208,-83.9576,54.4708,59.93229101,10.71991311,0.0
17.418434,-1.0183,0.0794,-0.1046,-0.2542,0.0698,0.0198,-0.0047,0.0409,-0.0101,980.7019,38.04,-1.74,12.66,39.0,266.9384,-175.8581,-83.8696,54.4708,59.93229101,10.71991311,0.0
17.480144,-1.0054,0.0772,-0.1094,-0.1304,0.0524,0.0023,-0.0084,0.003,-0.0119,980.6919,38.4,-2.16,15.06,39.0,268.6363,-175.8821,-83.6905,54.4708,59.93229101,10.71991311,0.0
17.539545,-1.0149,0.0784,-0.1009,-0.2212,0.0687,0.0653,-0.0084,0.003,-0.0119,980.6934,38.1,-2.28,13.62,40.0,267.297,-175.9076,-83.8136,54.4708,59.93229101,10.71991311,0.0
17.599625,-1.0012,0.0699,-0.1097,-0.0873,-0.0184,-0.0212,0.0081,0.0482,0.0107,980.6934,37.62,-2.52,15.0,40.0,265.1661,-175.8885,-83.8152,54.4708,59.93229101,10.71991311,0.0
17.658983,-1.0022,0.0738,-0.1112,-0.0987,0.0147,-0.0217,0.0008,-0.0117,0.0101,980.6912,38.04,-3.24,15.0,40.0,264.7167,-175.8578,-83.7331,52.1968,59.93229101,10.71991311,0.0
17.718321,-1.0044,0.0745,-0.1104,-0.1206,0.0147,-0.0163,0.0008,-0.0117,0.0101,980.6912,37.92,-3.36,14.94,39.0,261.8395,-175.816,-83.7436,52.1968,59.93229101,10.71991311,0.0
17.779773,-1.0051,0.0762,-0.1077,-0.1289,0.021,0.0127,0.0179,-0.0239,0.0217,980.6934,38.46,-2.58,14.4,39.0,263.0128,-175.7547,-83.7276,52.1968,59.93229101,10.71991311,0.0
17.842486,-0.997,0.0799,-0.1178,-0.0493,0.0458,-0.0987,0.0228,0.0146,0.0229,980.6729,38.82,-2.34,14.22,39.0,264.0658,-175.6895,-83.8049,52.1968,59.93229101,10.71991311,0.0
17.89999,-1.0149,0.0843,-0.0953,-0.2261,0.0791,0.1339,-0.0017,-0.0257,0.0113,980.6729,38.34,-3.0,14.7,39.0,264.6216,-175.6322,-83.7318,52.1968,59.93229101,10.71991311,0.0
17.958054,-0.9988,0.0828,-0.1019,-0.0664,0.0557,0.0468,0.0008,-0.0221,0.0076,980.6782,36.78,-4.2,16.38,39.0,259.1733,-175.5788,-83.8634,50.8852,59.93229101,10.71991311,0.0
18.018704,-0.9939,0.0792,-0.1146,-0.022,0.0044,-0.0568,-0.0005,0.0683,0.0205,980.6782,38.82,-2.28,14.04,39.0,262.9816,-175.489,-83.7395,50.8852,59.93229101,10.71991311,0.0
18.079372,-1.0022,0.0806,-0.1116,-0.1068,0.016,0.0006,-0.0231,0.0073,-0.0162,980.6699,38.58,-2.34,15.78,39.0,266.1317,-175.4726,-83.5703,50.8852,59.93229101,10.71991311,0.0
18.150612,-1.0061,0.0774,-0.1134,-0.1467,-0.0074,0.0033,-0.0133,0.0659,-0.0217,980.6855,38.22,-3.18,14.46,39.0,264.8247,-175.5178,-83.4557,50.8852,59.93229101,10.71991311,0.0
18.19932,-1.01,0.086,-0.1224,-0.1863,0.0875,-0.0668,-0.0121,0.028,-0.0223,980.6855,38.16,-3.54,14.7,39.0,263.71,-175.5829,-83.3474,50.8852,59.93229101,10.71991311,0.0
18.259651,-1.0049,0.0789,-0.1182,-0.1363,0.0301,-0.0155,-0.0072,-0.0086,-0.0144,980.6746,39.36,-2.04,13.86,39.0,265.7525,-175.6534,-83.2856,51.8157,59.93229101,10.71991311,0.0
18.320155,-1.0022,0.0799,-0.12,-0.1085,0.0449,-0.0408,0.0166,-0.005,-0.007,980.6746,38.34,-2.58,14.34,39.0,267.1382,-175.6839,-83.336,51.8157,59.93229101,10.71991311,0.0
18.379051,-1.0061,0.0779,-0.1185,-0.1475,0.0294,-0.019,0.016,0.0109,-0.0034,980.6824,38.82,-2.7,14.16,39.0,266.6298,-175.7056,-83.2928,51.8157,59.93229101,10.71991311,0.0
18.440732,-1.0007,0.0767,-0.1207,-0.0932,0.0195,-0.0532,0.005,-0.0367,-0.0034,980.6794,38.52,-2.82,16.44,39.0,268.7026,-175.7175,-83.3672,51.8157,59.93229101,10.71991311,0.0
18.4998,-1.0032,0.0782,-0.119,-0.1165,0.0331,-0.0421,0.0118,0.0011,0.0076,980.6794,39.36,-1.92,14.58,37.0,268.7397,-175.7129,-83.4008,51.8157,59.93229101,10.71991311,0.0
18.560925,-1.0007,0.0801,-0.1182,-0.0923,0.0468,-0.0405,0.0111,-0.0367,0.0095,980.6812,38.82,-2.22,13.08,37.0,269.5625,-175.6814,-83.4333,51.5621,59.93229101,10.71991311,0.0
18.624365,-0.9941,0.0816,-0.1248,-0.0264,0.0547,-0.1204,0.0221,0.0109,0.0144,980.6812,38.22,-3.18,14.58,37.0,265.3472,-175.6431,-83.5228,51.5621,59.93229101,10.71991311,0.0
18.679391,-1.0146,0.085,-0.0999,-0.2295,0.0801,0.1351,0.0105,-0.0544,0.0076,980.677,37.62,-3.78,15.84,37.0,262.9821,-175.5956,-83.4563,51.5621,59.93229101,10.71991311,0.0
18.741237,-0.999,0.0906,-0.1222,-0.073,0.1298,-0.1152,0.0283,-0.0129,0.0125,980.6855,38.1,-2.52,14.52,39.0,264.193,-175.5646,-83.6467,51.5621,59.93229101,10.71991311,0.0
18.799781,-1.0041,0.0897,-0.1185,-0.1264,0.1089,-0.0592,-0.0029,0.0262,0.0089,980.6855,38.88,-2.88,13.26,39.0,264.3613,-175.4982,-83.5278,51.5621,59.93229101,10.71991311,0.0
18.858376,-0.9975,0.0796,-0.119,-0.0629,0.0082,-0.0554,-0.0102,0.0011,-0.0162,980.6858,38.58,-3.06,14.58,39.0,264.2173,-175.4828,-83.4769,51.7904,59.93229101,10.71991311,0.0
18.918834,-0.9988,0.0713,-0.117,-0.0749,-0.0662,-0.0315,-0.0011,-0.0056,-0.0125,980.6858,39.0,-2.82,13.8,39.0,262.5579,-175.5241,-83.4497,51.7904,59.93229101,10.71991311,0.0
18.979703,-0.9985,0.0831,-0.1124,-0.0709,0.0546,0.004,-0.0194,-0.0245,-0.0168,980.7126,38.58,-3.18,15.12,39.0,264.9779,-175.5587,-83.5087,51.7904,59.93229101,10.71991311,0.0
19.042581,-1.0144,0.0858,-0.1021,-0.2218,0.087,0.067,-0.0102,-0.1241,-0.0089,980.7083,38.4,-2.7,14.1,39.0,264.1416,-175.594,-83.7307,51.7904,59.93229101,10.71991311,0.0
19.100119,-1.0083,0.085,-0.0992,-0.1546,0.0801,0.0266,0.0246,-0.0477,0.004,980.7083,37.62,-4.5,17.82,39.0,260.94,-175.596,-84.138,51.7904,59.93229101,10.71991311,0.0
19.159813,-1.011,0.0828,-0.1024,-0.1825,0.0585,0.0104,0.0105,0.0146,0.0009,980.7214,37.98,-3.36,14.58,39.0,261.1039,-175.5956,-84.0499,52.7133,59.93229101,10.71991311,0.0
19.218781,-1.0002,0.0789,-0.1043,-0.0754,0.02,-0.0264,0.0032,-0.0477,-0.0052,980.7214,38.34,-2.7,13.74,39.0,262.8947,-175.5945,-84.1541,52.7133,59.93229101,10.71991311,0.0
19.279102,-0.9997,0.0843,-0.1041,-0.0692,0.0732,-0.0366,0.0099,0.0066,-0.0003,980.7017,36.48,-4.92,17.28,39.0,260.1744,-175.5973,-84.2284,52.7133,59.93229101,10.71991311,0.0
19.340273,-0.9992,0.0816,-0.1041,-0.0651,0.0473,-0.0302,0.0099,0.0066,-0.0003,980.708,37.44,-3.24,13.86,40.0,261.1453,-175.5997,-84.1902,52.7133,59.93229101,10.71991311,0.0
19.399973,-1.0051,0.0816,-0.1021,-0.122,0.0501,-0.0141,0.0057,-0.0172,-0.007,980.708,37.5,-3.96,14.22,40.0,260.5376,-175.6166,-84.2084,52.7133,59.93229101,10.71991311,0.0
19.459503,-1.0068,0.0811,-0.0938,-0.1388,0.0484,0.0696,0.0032,-0.0001,-0.0113,980.7078,38.46,-2.82,14.7,40.0,262.0689,-175.6346,-84.1952,51.3767,59.93229101,10.71991311,0.0
19.519763,-0.9975,0.0767,-0.1019,-0.0469,0.0097,-0.0152,0.0289,0.0036,-0.0034,980.7078,37.5,-3.24,13.86,40.0,262.5807,-175.6602,-84.2297,51.3767,59.93229101,10.71991311,0.0
19.578187,-1.009,0.0796,-0.1048,-0.1621,0.0355,-0.0199,0.0111,0.0299,-0.0003,980.6968,37.8,-3.12,14.22,40.0,262.1834,-175.6431,-84.0879,51.3767,59.93229101,10.71991311,0.0
19.639886,-1.0029,0.0789,-0.1055,-0.103,0.0307,-0.0181,-0.009,0.0109,-0.0199,980.7004,38.52,-1.98,13.26,40.0,264.8423,-175.657,-84.0352,51.3767,59.93229101,10.71991311,0.0
19.701599,-0.9956,0.0657,-0.1107,-0.0322,-0.0921,-0.0539,-0.009,0.0109,-0.0199,980.7004,37.68,-3.54,14.58,40.0,265.2752,-175.6949,-83.9497,51.3767,59.93229101,10.71991311,0.0
19.75885,-1.0107,0.0787,-0.1129,-0.1811,0.0386,-0.0685,0.0063,0.0207,-0.0058,980.7078,38.4,-3.12,14.46,39.0,263.9034,-175.7176,-83.9091,50.6204,59.93229101,10.71991311,0.0
19.820236,-1.001,0.0804,-0.1046,-0.0849,0.0576,0.0109,-0.0041,-0.0526,0.0046,980.7078,38.1,-3.42,14.76,39.0,263.1555,-175.7302,-83.9208,50.6204,59.93229101,10.71991311,0.0
19.87885,-1.0049,0.0774,-0.1058,-0.1221,0.0239,-0.0153,0.0075,-0.0074,0.0027,980.7014,37.74,-3.06,14.7,39.0,262.1162,-175.7014,-84.0047,50.6204,59.93229101,10.71991311,0.0
19.939522,-1.0024,0.0792,-0.1087,-0.0985,0.0347,-0.045,0.0075,-0.0074,0.0027,980.6909,38.76,-2.82,15.3,40.0,266.1333,-175.6663,-84.0103,50.6204,59.93229101,10.71991311,0.0
19.999338,-0.9995,0.0796,-0.108,-0.07,0.0323,-0.0406,0.0014,-0.0153,0.0076,980.6909,38.34,-3.0,14.28,40.0,264.581,-175.6241,-84.0261,50.6204,59.93229101,10.71991311,0.0
20.058611,-1.0083,0.0833,-0.1048,-0.1561,0.0603,-0.0166,-0.0029,-0.0135,0.0119,980.6824,38.34,-3.24,14.76,40.0,263.9118,-175.5778,-84.0676,51.5319,59.93229101,10.71991311,0.0
20.118317,-0.999,0.0806,-0.1094,-0.0661,0.0248,-0.0598,-0.0029,-0.0135,0.0119,980.6824,37.62,-4.38,15.42,39.0,259.6644,-175.524,-84.0541,51.5319,59.93229101,10.71991311,0.0
20.182297,-1.0029,0.0855,-0.1051,-0.1039,0.0662,-0.0265,-0.0035,-0.0239,0.007,980.6643,37.86,-4.08,14.94,39.0,258.7903,-175.4861,-84.1114,51.5319,59.93229101,10.71991311,0.0
20.24087,-1.0032,0.085,-0.0997,-0.1074,0.0558,0.0331,-0.0121,-0.0044,-0.0058,980.6624,37.86,-2.58,13.08,39.0,261.7847,-175.4535,-84.0705,51.5319,59.93229101,10.71991311,0.0
20.303429,-0.9966,0.0792,-0.1073,-0.0402,-0.0003,-0.0649,-0.0121,-0.0044,-0.0058,980.6624,37.8,-3.6,13.26,41.0,262.297,-175.4613,-84.2105,51.5319,59.93229101,10.71991311,0.0
20.360543,-1.0024,0.0789,-0.1141,-0.0997,-0.0036,-0.1135,0.0166,0.0653,0.0003,980.6782,37.74,-3.36,15.36,41.0,262.7202,-175.456,-84.102,51.2507,59.93229101,10.71991311,0.0
20.418338,-1.0039,0.0855,-0.1058,-0.1152,0.0629,-0.0196,-0.0218,-0.0312,-0.0174,980.6782,39.48,-1.92,13.8,41.0,266.3284,-175.4668,-84.0284,51.2507,59.93229101,10.71991311,0.0
20.479274,-0.997,0.0757,-0.1158,-0.0474,-0.0233,-0.1179,-0.0053,0.0378,-0.0174,980.6763,37.38,-3.78,14.1,41.0,262.5067,-175.5232,-84.0294,51.2507,59.93229101,10.71991311,0.0
20.541638,-1.01,0.0836,-0.1075,-0.1758,0.0605,-0.017,-0.0005,-0.0215,-0.0113,980.6838,38.34,-2.94,14.1,46.0,262.5065,-175.5652,-83.9147,51.2507,59.93229101,10.71991311,0.0
20.600039,-1.0007,0.085,-0.1041,-0.0823,0.0798,-0.0037,0.0075,-0.019,-0.0021,980.6838,38.7,-2.28,12.6,46.0,266.9656,-175.5938,-84.0345,51.2507,59.93229101,10.71991311,0.0
20.658827,-1.0068,0.0792,-0.1038,-0.1423,0.0201,-0.0007,0.0136,0.0128,0.0009,980.698,37.92,-3.78,14.46,46.0,263.1812,-175.5811,-84.0305,56.6872,59.93229101,10.71991311,0.0
20.719286,-1.0002,0.0826,-0.1094,-0.0795,0.0519,-0.0401,0.0124,0.0286,0.0046,980.698,38.46,-2.88,14.34,40.0,264.7721,-175.5711,-83.9383,56.6872,59.93229101,10.71991311,0.0
20.779743,-1.0036,0.0784,-0.1099,-0.1133,0.0093,-0.0439,-0.0017,-0.0037,-0.0003,980.7034,38.1,-4.08,14.52,40.0,261.313,-175.5595,-83.9323,56.6872,59.93229101,10.71991311,0.0
20.842641,-1.0061,0.087,-0.1134,-0.1387,0.0909,-0.0648,0.0002,0.0256,0.0064,980.7146,36.9,-4.32,13.8,40.0,257.4654,-175.547,-83.8577,56.6872,59.93229101,10.71991311,0.0
20.898957,-1.0036,0.0831,-0.1112,-0.1156,0.048,-0.0393,0.0002,0.0256,0.0064,980.7146,37.38,-4.02,13.26,39.0,258.2728,-175.5199,-83.8341,56.6872,59.93229101,10.71991311,0.0
20.960041,-1.0007,0.0838,-0.1156,-0.0872,0.0512,-0.0823,-0.0017,0.014,0.004,980.7124,37.86,-3.9,14.88,39.0,259.61,-175.4967,-83.8332,53.5337,59.93229101,10.71991311,0.0
21.019645,-1.0144,0.0821,-0.0999,-0.2226,0.0306,0.0804,0.002,-0.0367,0.0021,980.7124,38.04,-3.06,15.18,39.0,260.0393,-175.4741,-83.7778,53.5337,59.93229101,10.71991311,0.0
21.078842,-0.9919,0.0814,-0.1153,-0.0001,0.0217,-0.0919,0.0374,-0.0007,0.0076,980.7065,37.98,-3.84,14.64,39.0,260.8216,-175.4641,-83.904,53.5337,59.93229101,10.71991311,0.0
21.142341,-0.9983,0.0796,-0.1129,-0.0645,0.0005,-0.0512,0.0252,0.0176,0.0076,980.7104,38.76,-2.7,13.44,39.0,260.4105,-175.4379,-83.8051,53.5337,59.93229101,10.71991311,0.0
21.199336,-1.0014,0.0914,-0.1114,-0.0971,0.1149,-0.0241,0.0008,0.0182,-0.0162,980.7104,38.22,-3.3,14.04,39.0,263.1541,-175.4348,-83.7296,53.5337,59.93229101,10.71991311,0.0
21.265615,-1.0044,0.0809,-0.1131,-0.1266,0.0184,-0.029,0.0111,0.0042,-0.0076,980.7104,38.28,-2.76,13.14,39.0,263.7178,-175.4729,-83.6603,50.8349,59.93229101,10.71991311,0.0
21.319743,-1.0029,0.0838,-0.1126,-0.1125,0.0515,-0.0192,-0.006,0.0152,-0.0137,980.7104,37.5,-3.9,15.18,39.0,262.3268,-175.4982,-83.6311,50.8349,59.93229101,10.71991311,0.0
21.379419,-1.0029,0.0889,-0.1121,-0.1122,0.104,-0.0148,-0.0176,-0.0355,-0.0046,980.739,38.04,-2.76,13.5,39.0,264.1667,-175.5115,-83.633,50.8349,59.93229101,10.71991311,0.0
21.44974,-1.0017,0.0738,-0.116,-0.0993,-0.0467,-0.0632,-0.0041,0.0158,-0.0052,980.7615,38.1,-2.52,14.22,39.0,264.7894,-175.4978,-83.693,50.8349,59.93229101,10.71991311,0.0
21.499222,-1.0034,0.0811,-0.1153,-0.1168,0.0254,-0.0494,-0.0023,-0.0196,-0.0009,980.7615,38.1,-3.36,13.92,39.0,264.0787,-175.4997,-83.6535,50.8349,59.93229101,10.71991311,0.0
21.559513,-1.0044,0.0784,-0.1136,-0.1254,-0.0018,-0.0417,-0.0121,-0.0001,-0.0034,980.7593,38.7,-2.94,14.1,39.0,264.1898,-175.4944,-83.7072,49.7651,59.93229101,10.71991311,0.0
21.618815,-1.0022,0.0845,-0.1158,-0.1046,0.0574,-0.0576,-0.0084,0.0054,-0.0021,980.7593,38.82,-3.24,14.4,39.0,264.0085,-175.4911,-83.674,49.7651,59.93229101,10.71991311,0.0
21.68043,-1.0039,0.0787,-0.1129,-0.121,-0.0006,-0.0325,-0.0053,-0.0184,-0.0009,980.7708,38.64,-2.16,14.58,39.0,264.3803,-175.4873,-83.6953,49.7651,59.93229101,10.71991311,0.0
21.741472,-1.0029,0.0831,-0.1214,-0.1116,0.0408,-0.1157,0.0057,0.0244,0.0015,980.7727,39.24,-1.92,13.62,39.0,267.7634,-175.4776,-83.6916,49.7651,59.93229101,10.71991311,0.0
21.79869,-1.01,0.0828,-0.1026,-0.1812,0.0376,0.0699,0.0069,-0.0569,0.0009,980.7727,38.7,-2.4,13.2,39.0,268.6673,-175.4727,-83.6841,49.7651,59.93229101,10.71991311,0.0
21.858769,-0.9978,0.0823,-0.1209,-0.0609,0.0315,-0.1159,0.016,0.039,0.0095,980.7551,37.74,-3.54,14.64,39.0,263.9127,-175.4655,-83.721,49.7206,59.93229101,10.71991311,0.0
21.918974,-1.0041,0.0831,-0.1151,-0.1258,0.0345,-0.0379,-0.0316,0.003,-0.0082,980.7551,38.34,-3.6,14.64,39.0,262.0698,-175.4405,-83.5997,49.7206,59.93229101,10.71991311,0.0
21.978821,-1.0014,0.0706,-0.1209,-0.0997,-0.0846,-0.0912,-0.0078,0.0066,-0.0162,980.7605,38.94,-3.3,14.22,39.0,261.4435,-175.4582,-83.5753,49.7206,59.93229101,10.71991311,0.0
22.042126,-1.0005,0.0765,-0.1195,-0.0908,-0.0195,-0.0653,-0.0023,-0.0001,-0.0082,980.7881,37.14,-4.32,14.64,39.0,260.3378,-175.5034,-83.5075,49.7206,59.93229101,10.71991311,0.0
22.101573,-0.9978,0.0811,-0.1153,-0.064,0.031,-0.0251,-0.0206,0.0085,-0.0186,980.7881,36.96,-3.96,16.14,39.0,261.5149,-175.5325,-83.5109,49.7206,59.93229101,10.71991311,0.0
22.15889,-1.0073,0.0848,-0.1156,-0.1572,0.0692,-0.0276,-0.0206,0.0085,-0.0186,980.7712,36.0,-5.88,16.26,39.0,257.0689,-175.5461,-83.5115,49.8784,59.93229101,10.71991311,0.0
22.225579,-1.0017,0.0757,-0.1209,-0.1025,-0.0213,-0.0784,-0.0096,0.0335,-0.0064,980.7712,39.0,-2.52,14.76,39.0,260.321,-175.5348,-83.5003,49.8784,59.93229101,10.71991311,0.0
22.280122,-1.0041,0.0836,-0.1185,-0.1282,0.0567,-0.0383,-0.009,-0.0086,-0.004,980.7864,37.74,-3.42,14.88,39.0,261.7875,-175.5427,-83.4051,49.8784,59.93229101,10.71991311,0.0
22.34611,-1.0,0.0826,-0.1187,-0.0869,0.0485,-0.0452,-0.009,-0.0086,-0.004,980.7581,39.06,-2.46,13.92,39.0,264.3186,-175.5509,-83.4315,49.8784,59.93229101,10.71991311,0.0
22.399729,-1.0041,0.0811,-0.1212,-0.1297,0.0348,-0.0502,-0.0096,0.0256,-0.0058,980.7581,38.16,-2.52,15.42,39.0,267.5091,-175.5546,-83.3198,49.8784,59.93229101,10.71991311,0.0
22.458277,-1.0029,0.0772,-0.1202,-0.1174,-0.0021,-0.0425,-0.0096,0.0256,-0.0058,980.7483,38.46,-2.58,15.06,39.0,264.6734,-175.5628,-83.331,50.9193,59.93229101,10.71991311,0.0
22.520693,-0.9985,0.0806,-0.1236,-0.0744,0.0319,-0.0749,-0.0047,0.0402,-0.0027,980.7483,39.84,-2.28,13.92,37.0,266.8397,-175.5656,-83.3246,50.9193,59.93229101,10.71991311,0.0
22.579228,-1.0085,0.0789,-0.1141,-0.172,0.0164,0.0146,0.0057,-0.0526,0.0003,980.7427,39.3,-2.64,14.34,37.0,267.4569,-175.5731,-83.3475,50.9193,59.93229101,10.71991311,0.0
22.640557,-0.9988,0.084,-0.1319,-0.0759,0.0631,-0.1657,0.0368,0.0506,0.0168,980.7461,39.36,-2.7,13.62,37.0,265.7969,-175.5524,-83.38,50.9193,59.93229101,10.71991311,0.0
22.69872,-1.0061,0.0848,-0.1341,-0.1525,0.0686,-0.1475,-0.0499,0.0427,-0.0229,980.7461,37.5,-3.54,13.98,37.0,263.5063,-175.5422,-83.1454,50.9193,59.93229101,10.71991311,0.0
22.760251,-0.9958,0.0706,-0.1317,-0.0509,-0.0646,-0.129,-0.0066,-0.0135,-0.0101,980.752,37.92,-3.54,15.0,37.0,261.8782,-175.5754,-83.1773,50.478,59.93229101,10.71991311,0.0
22.818017,-1.0117,0.0855,-0.1317,-0.2077,0.086,-0.1159,0.0081,0.0244,-0.0046,980.752,38.04,-3.54,15.54,37.0,263.1908,-175.6022,-83.1008,50.478,59.93229101,10.71991311,0.0
22.878116,-0.9961,0.076,-0.1244,-0.0566,-0.0059,-0.0257,0.0148,-0.0135,0.0027,980.7527,39.3,-1.98,14.46,37.0,263.7688,-175.6107,-82.992,50.478,59.93229101,10.71991311,0.0
22.939745,-1.0049,0.088,-0.117,-0.1414,0.1094,0.0333,0.0136,-0.0178,0.0027,980.7275,36.6,-4.86,16.68,37.0,259.5033,-175.5992,-83.068,50.478,59.93229101,10.71991311,0.0
23.00041,-0.9966,0.0794,-0.128,-0.0606,0.0234,-0.0708,0.0136,0.0182,0.007,980.7275,38.82,-3.18,15.54,37.0,260.1278,-175.5861,-83.0465,50.478,59.93229101,10.71991311,0.0
23.059284,-1.0044,0.0836,-0.1258,-0.1383,0.0616,-0.0426,0.0002,0.0042,-0.0003,980.7273,37.8,-2.82,14.22,37.0,261.9839,-175.5715,-83.0065,49.8995,59.93229101,10.71991311,0.0
23.119954,-1.0017,0.0836,-0.1231,-0.1119,0.0623,-0.0159,-0.0005,-0.0092,-0.0003,980.7273,37.8,-3.54,16.2,37.0,262.0778,-175.5753,-83.0046,49.8995,59.93229101,10.71991311,0.0
23.179398,-0.9995,0.0831,-0.1239,-0.0899,0.0563,-0.0272,0.0044,-0.0007,-0.0021,980.7192,38.22,-2.7,13.74,37.0,263.6587,-175.5687,-83.0289,49.8995,59.93229101,10.71991311,0.0
23.240043,-0.9968,0.0821,-0.13,-0.063,0.0459,-0.0924,0.016,-0.016,-0.0003,980.7107,38.7,-2.58,14.82,37.0,268.1529,-175.5639,-83.0604,49.8995,59.93229101,10.71991311,0.0
23.300767,-1.0083,0.0806,-0.1212,-0.1769,0.0299,0.0039,-0.017,0.0079,-0.0125,980.7107,37.62,-3.36,14.16,36.0,265.2204,-175.5539,-83.0004,49.8995,59.93229101,10.71991311,0.0
23.356715,-0.9992,0.0789,-0.1244,-0.0853,0.0174,-0.0494,0.0014,-0.0514,-0.0089,980.7087,36.72,-4.26,19.98,36.0,260.672,-175.5793,-83.1316,49.7749,59.93229101,10.71991311,0.0
23.420486,-0.9868,0.0716,-0.1375,0.0356,-0.054,-0.1681,0.0447,0.0738,0.0205,980.7087,38.58,-3.48,15.66,36.0,260.7473,-175.5814,-83.0692,49.7749,59.93229101,10.71991311,0.0
23.478472,-1.0178,0.0928,-0.1195,-0.2741,0.1607,0.0585,-0.0145,0.0121,-0.0168,980.7253,38.94,-2.7,14.58,36.0,260.7351,-175.6193,-82.7778,49.7749,59.93229101,10.71991311,0.0
23.539791,-0.9856,0.0669,-0.1402,0.0443,-0.0898,-0.1623,-0.0194,0.0109,-0.0131,980.7483,38.76,-1.92,14.88,37.0,264.632,-175.6384,-82.88,49.7749,59.93229101,10.71991311,0.0
23.602272,-1.0051,0.0779,-0.1449,-0.1497,0.022,-0.1852,0.005,0.0543,-0.004,980.7483,38.94,-2.16,13.92,37.0,266.0999,-175.6621,-82.747,49.7749,59.93229101,10.71991311,0.0
23.658593,-1.0017,0.0787,-0.1268,-0.1173,0.0298,0.0008,-0.009,-0.0428,-0.0027,980.7375,38.82,-2.52,15.3,37.0,265.3464,-175.6658,-82.6948,49.4854,59.93229101,10.71991311,0.0
23.718782,-1.0058,0.0787,-0.1319,-0.1567,0.0288,-0.0605,-0.0023,0.0152,0.0021,980.7375,37.2,-3.72,15.24,41.0,263.1201,-175.66,-82.76,49.4854,59.93229101,10.71991311,0.0
23.778988,-1.0,0.0777,-0.1353,-0.1019,0.0165,-0.0747,0.0057,0.014,0.0052,980.7422,38.52,-2.7,15.66,41.0,265.4738,-175.644,-82.6458,49.4854,59.93229101,10.71991311,0.0
23.838777,-1.0007,0.0818,-0.1344,-0.1081,0.0566,-0.0729,-0.0127,-0.0343,-0.0064,980.7256,38.88,-2.28,14.22,41.0,265.7828,-175.6402,-82.6914,49.4854,59.93229101,10.71991311,0.0
23.898509,-1.0012,0.0806,-0.1297,-0.1117,0.0449,-0.0371,-0.0127,-0.0343,-0.0064,980.7256,38.7,-2.52,13.14,36.0,265.9297,-175.6421,-82.7488,49.4854,59.93229101,10.71991311,0.0
23.957572,-0.998,0.0794,-0.1302,-0.0807,0.0323,-0.0408,-0.009,-0.0239,-0.0027,980.6914,38.16,-3.54,14.4,36.0,262.9186,-175.6382,-82.7424,50.9371,59.93229101,10.71991311,0.0
24.019131,-0.9926,0.0792,-0.1395,-0.0258,0.0284,-0.1506,0.013,-0.0263,0.0058,980.6914,37.8,-3.12,15.72,36.0,263.869,-175.6295,-82.8534,50.9371,59.93229101,10.71991311,0.0
24.078527,-1.0041,0.0836,-0.1263,-0.1388,0.0698,-0.0185,-0.0139,0.0005,-0.0089,980.6912,36.96,-3.84,15.9,36.0,262.4205,-175.6194,-82.8368,50.9371,59.93229101,10.71991311,0.0
24.138086,-1.0041,0.0799,-0.1305,-0.1379,0.0345,-0.0661,0.0026,0.0011,-0.0076,980.718,37.32,-4.14,15.78,36.0,259.5356,-175.6232,-82.8772,50.9371,59.93229101,10.71991311,0.0
24.199255,-0.9951,0.0728,-0.1483,-0.0513,-0.04,-0.2285,0.0008,0.0463,0.0027,980.718,38.34,-3.18,15.96,36.0,260.3617,-175.5934,-82.8041,50.9371,59.93229101,10.71991311,0.0
24.258719,-0.9997,0.0826,-0.13,-0.1011,0.0611,-0.0121,0.0032,0.0115,-0.0089,980.7053,38.22,-3.12,14.88,36.0,261.0974,-175.6245,-82.5866,49.4538,59.93229101,10.71991311,0.0
24.318439,-0.9966,0.0826,-0.1297,-0.0712,0.0657,0.0028,-0.009,0.0396,-0.0168,980.7053,38.46,-2.4,14.82,34.0,270.5648,-175.6514,-82.5133,49.4538,59.93229101,10.71991311,0.0
24.37817,-1.0,0.0777,-0.1476,-0.106,0.0235,-0.159,0.0069,0.0439,-0.0101,980.7031,39.0,-1.74,14.1,34.0,269.3672,-175.6852,-82.4366,49.4538,59.93229101,10.71991311,0.0
24.439724,-0.9963,0.0784,-0.1417,-0.0721,0.035,-0.0845,-0.0005,-0.0196,-0.0089,980.7083,38.16,-2.64,14.1,34.0,266.8246,-175.7105,-82.336,49.4538,59.93229101,10.71991311,0.0
24.503454,-1.0051,0.0748,-0.1339,-0.1558,0.0018,-0.0242,0.0136,-0.0178,-0.0027,980.7083,38.52,-3.84,16.26,34.0,262.8791,-175.726,-82.4331,49.4538,59.93229101,10.71991311,0.0
24.558671,-0.9997,0.0814,-0.1378,-0.1042,0.0682,-0.054,0.0087,0.025,-0.0046,980.717,38.16,-2.52,14.94,34.0,263.9968,-175.7365,-82.3825,50.0061,59.93229101,10.71991311,0.0
24.623383,-0.997,0.075,-0.1388,-0.0781,0.0079,-0.0602,-0.0017,-0.0031,-0.0076,980.717,39.0,-2.82,15.0,34.0,264.5617,-175.7478,-82.3627,50.0061,59.93229101,10.71991311,0.0
24.677776,-0.9992,0.0784,-0.1373,-0.1,0.0439,-0.0422,0.0008,0.0011,-0.0064,980.7251,38.64,-2.52,15.24,34.0,264.4448,-175.7625,-82.3414,50.0061,59.93229101,10.71991311,0.0
24.736689,-1.0014,0.0765,-0.1341,-0.1206,0.0274,-0.0163,0.0014,-0.0282,-0.004,980.7144,39.12,-2.28,15.3,34.0,266.1829,-175.778,-82.3726,50.0061,59.93229101,10.71991311,0.0
24.798595,-0.9985,0.0762,-0.1402,-0.0897,0.0266,-0.0917,0.0118,-0.0099,0.0021,980.7144,37.8,-3.12,15.36,34.0,260.9494,-175.7873,-82.4643,50.0061,59.93229101,10.71991311,0.0
24.858613,-1.0066,0.0765,-0.1312,-0.1703,0.0265,0.0071,-0.0011,-0.0123,-0.0003,980.7058,38.7,-3.06,15.54,34.0,261.8839,-175.7726,-82.4042,49.9343,59.93229101,10.71991311,0.0
24.920126,-0.9922,0.0818,-0.1292,-0.0254,0.0781,-0.0017,0.0136,-0.0105,-0.0015,980.7058,38.88,-3.0,15.66,36.0,264.5959,-175.7662,-82.5692,49.9343,59.93229101,10.71991311,0.0
24.977598,-1.0007,0.0711,-0.1405,-0.1112,-0.0337,-0.1007,0.0362,0.0201,0.0247,980.7231,39.18,-2.1,15.06,36.0,265.8651,-175.7286,-82.5028,49.9343,59.93229101,10.71991311,0.0
25.045087,-1.0041,0.0855,-0.1261,-0.1462,0.1027,0.0496,-0.0261,-0.0092,-0.0144,980.7151,39.18,-2.4,15.0,36.0,266.4875,-175.7004,-82.4491,49.9343,59.93229101,10.71991311,0.0
25.097053,-0.9887,0.0638,-0.1466,0.0046,-0.1067,-0.1495,-0.0261,-0.0092,-0.0144,980.7151,36.84,-3.78,17.88,34.0,262.6345,-175.7216,-82.4373,49.9343,59.93229101,10.71991311,0.0
25.159766,-1.0034,0.0804,-0.1422,-0.1384,0.0626,-0.1073,0.0063,-0.041,-0.0064,980.7056,38.64,-3.18,16.32,34.0,260.4693,-175.7596,-82.4431,50.3007,59.93229101,10.71991311,0.0
25.218133,-0.9975,0.0787,-0.1309,-0.0793,0.0505,-0.0072,0.0142,-0.0202,-0.0034,980.7056,38.46,-3.0,15.0,34.0,263.3362,-175.7869,-82.5027,50.3007,59.93229101,10.71991311,0.0
25.28236,-1.0068,0.0801,-0.1246,-0.1682,0.0652,0.0393,-0.0139,-0.0367,-0.0095,980.7161,38.04,-2.88,14.7,34.0,262.9544,-175.7891,-82.5957,50.3007,59.93229101,10.71991311,0.0
25.33839,-0.9968,0.0745,-0.1336,-0.0677,0.0109,-0.0669,0.0124,-0.0031,0.0046,980.7246,38.7,-2.94,14.1,34.0,263.1208,-175.7936,-82.7001,50.3007,59.93229101,10.71991311,0.0
25.402496,-1.0032,0.0777,-0.1307,-0.1299,0.0405,-0.0393,-0.0035,-0.0282,-0.0027,980.7246,39.18,-2.7,14.82,34.0,264.6447,-175.7848,-82.7068,50.3007,59.93229101,10.71991311,0.0
25.457733,-1.0022,0.0799,-0.1278,-0.1184,0.06,-0.0271,-0.006,-0.0215,-0.0015,980.7256,38.34,-2.52,15.06,34.0,266.5097,-175.7726,-82.8039,50.9698,59.93229101,10.71991311,0.0
25.518626,-1.0027,0.0762,-0.127,-0.1232,0.0213,-0.0214,-0.0072,-0.005,-0.0009,980.7256,38.76,-2.04,14.94,36.0,264.4129,-175.7561,-82.8127,50.9698,59.93229101,10.71991311,0.0
25.578123,-1.0007,0.0772,-0.1283,-0.1029,0.03,-0.0432,-0.0084,-0.0239,-0.0003,980.7073,38.22,-3.3,15.3,36.0,264.978,-175.7509,-82.8704,50.9698,59.93229101,10.71991311,0.0
25.638665,-0.997,0.077,-0.1349,-0.0674,0.0248,-0.1057,-0.0017,0.0231,0.0034,980.7292,39.54,-1.74,13.86,36.0,267.5675,-175.7345,-82.8579,50.9698,59.93229101,10.71991311,0.0
25.698787,-1.0041,0.0774,-0.1217,-0.1345,0.0275,0.0033,0.0136,-0.0703,0.0064,980.7292,37.8,-2.88,13.98,36.0,267.4969,-175.7223,-82.9775,50.9698,59.93229101,10.71991311,0.0
25.758173,-0.9895,0.0814,-0.1287,0.0102,0.0603,-0.0784,0.0411,0.0482,0.0217,980.7268,38.76,-2.04,14.16,36.0,266.7336,-175.69,-83.0495,51.2237,59.93229101,10.71991311,0.0
25.819626,-1.0054,0.0875,-0.1224,-0.149,0.111,0.0075,-0.0487,0.017,-0.0162,980.7268,38.4,-3.3,15.3,36.0,265.7521,-175.6364,-82.9094,51.2237,59.93229101,10.71991311,0.0
25.879713,-0.9922,0.0633,-0.1329,-0.0189,-0.1215,-0.099,-0.0023,0.0054,-0.0095,980.7207,38.64,-1.86,13.74,36.0,266.3508,-175.6629,-82.9307,51.2237,59.93229101,10.71991311,0.0
25.938299,-1.0095,0.0811,-0.1222,-0.1889,0.0604,0.0101,0.0093,-0.0251,-0.0064,980.7065,38.28,-3.06,15.24,37.0,266.2275,-175.7048,-82.9089,51.2237,59.93229101,10.71991311,0.0
26.003748,-0.9973,0.0809,-0.127,-0.0683,0.0627,-0.0421,-0.0102,-0.0062,-0.0174,980.7065,38.52,-2.7,14.82,37.0,267.3284,-175.732,-82.9348,51.2237,59.93229101,10.71991311,0.0
26.059704,-1.0061,0.0826,-0.1219,-0.1525,0.081,-0.0065,-0.0133,-0.03,-0.0101,980.7095,37.98,-2.82,14.82,37.0,265.4452,-175.7411,-83.0213,67.5099,59.93229101,10.71991311,0.0
26.116542,-0.9966,0.0728,-0.1292,-0.0585,-0.0154,-0.0836,0.0124,0.017,0.0015,980.7095,37.62,-3.6,16.2,36.0,263.3881,-175.7375,-83.0527,67.5099,59.93229101,10.71991311,0.0
26.179624,-1.0027,0.0794,-0.1219,-0.1183,0.0484,-0.0132,0.0063,-0.0489,-0.0015,980.7119,37.14,-4.2,15.72,36.0,258.3389,-175.7327,-83.0606,67.5099,59.93229101,10.71991311,0.0
26.237915,-1.0005,0.0809,-0.1224,-0.0948,0.0632,-0.0337,0.002,0.0097,-0.0034,980.7141,38.28,-1.32,12.42,36.0,264.6318,-175.7352,-83.1538,67.5099,59.93229101,10.71991311,0.0
26.300066,-1.0041,0.0792,-0.1251,-0.1315,0.0452,-0.0546,-0.0035,-0.0111,-0.004,980.7141,37.98,-3.12,14.7,37.0,265.0954,-175.7279,-83.1216,67.5099,59.93229101,10.71991311,0.0
26.358304,-1.0034,0.0784,-0.1187,-0.1226,0.0388,-0.006,-0.0011,-0.0288,-0.0034,980.7207,38.64,-2.58,15.18,37.0,265.2233,-175.7325,-83.2023,61.0024,59.93229101,10.71991311,0.0
26.417232,-0.9992,0.0774,-0.1263,-0.081,0.0296,-0.0877,0.0044,0.0048,-0.0021,980.7207,38.88,-2.22,13.98,37.0,268.2599,-175.7348,-83.2465,61.0024,59.93229101,10.71991311,0.0
26.478759,-1.0095,0.0804,-0.1131,-0.1819,0.0584,0.0445,-0.006,-0.0318,-0.0064,980.7043,38.58,-1.62,14.46,37.0,267.9606,-175.735,-83.2291,61.0024,59.93229101,10.71991311,0.0
26.538676,-0.9968,0.0779,-0.1261,-0.0541,0.0344,-0.1107,-0.006,-0.0318,-0.0064,980.6868,37.74,-3.48,14.88,39.0,265.7047,-175.7349,-83.3959,61.0024,59.93229101,10.71991311,0.0
26.597972,-1.0061,0.0772,-0.1231,-0.1484,0.0204,-0.0575,0.0234,0.0347,0.0131,980.6868,38.34,-2.46,14.04,39.0,264.9623,-175.6949,-83.2511,61.0024,59.93229101,10.71991311,0.0
26.657939,-0.9985,0.0777,-0.1207,-0.0745,0.0255,-0.0305,-0.0163,-0.0147,-0.0199,980.7136,37.8,-2.94,13.8,39.0,266.3994,-175.6966,-83.2333,55.9286,59.93229101,10.71991311,0.0
26.716325,-0.9975,0.0635,-0.1256,-0.0651,-0.1053,-0.0722,-0.0163,-0.0147,-0.0199,980.7136,38.28,-3.12,14.28,37.0,265.6606,-175.744,-83.1974,55.9286,59.93229101,10.71991311,0.0
26.778916,-0.999,0.0828,-0.1297,-0.0784,0.0888,-0.1186,-0.0078,-0.0129,-0.0113,980.7119,38.52,-2.46,14.22,37.0,264.4594,-175.773,-83.2309,55.9286,59.93229101,10.71991311,0.0
26.839015,-1.0039,0.0787,-0.1182,-0.1263,0.0515,-0.0039,-0.0127,-0.0184,-0.0021,980.7075,38.52,-3.06,14.52,37.0,263.9058,-175.7927,-83.2182,55.9286,59.93229101,10.71991311,0.0
26.900578,-1.0051,0.0765,-0.1178,-0.1371,0.0287,-0.0101,-0.0017,-0.0099,-0.0009,980.7075,38.28,-3.0,13.38,37.0,263.7443,-175.7855,-83.2832,55.9286,59.93229101,10.71991311,0.0
26.960239,-1.0022,0.0738,-0.1258,-0.1094,-0.0001,-0.0818,0.0002,0.0201,0.0027,980.709,38.22,-1.74,15.0,37.0,267.7244,-175.7711,-83.2398,53.7598,59.93229101,10.71991311,0.0
27.018137,-1.0029,0.0767,-0.1217,-0.1158,0.0273,-0.0488,-0.0066,-0.0312,-0.0034,980.709,38.28,-2.82,13.92,37.0,265.3579,-175.7633,-83.2853,53.7598,59.93229101,10.71991311,0.0
27.076965,-1.0041,0.0794,-0.1178,-0.1273,0.0536,-0.0137,-0.0041,0.0097,-0.0021,980.7126,37.92,-2.82,14.46,37.0,265.7881,-175.7629,-83.3041,53.7598,59.93229101,10.71991311,0.0
27.138702,-1.0022,0.0762,-0.1197,-0.109,0.0206,-0.027,-0.0127,-0.005,-0.0027,980.6875,36.84,-4.38,16.8,40.0,261.0046,-175.7521,-83.2696,53.7598,59.93229101,10.71991311,0.0
27.198653,-1.0046,0.0777,-0.1197,-0.1327,0.0341,-0.0299,-0.0072,0.0011,-0.0034,980.6875,36.48,-4.56,17.7,40.0,258.0447,-175.7471,-83.2868,53.7598,59.93229101,10.71991311,0.0
27.257945,-1.0039,0.0779,-0.1151,-0.1252,0.0364,0.013,0.0038,-0.0227,0.0003,980.6912,37.68,-3.42,14.52,40.0,258.0334,-175.7468,-83.302,52.1525,59.93229101,10.71991311,0.0
27.317908,-0.9958,0.0792,-0.1234,-0.0469,0.0464,-0.0633,-0.0029,0.0323,-0.0003,980.6912,36.84,-3.96,14.4,39.0,259.1806,-175.7352,-83.2718,52.1525,59.93229101,10.71991311,0.0
27.383668,-1.0012,0.0755,-0.1219,-0.0988,0.0099,-0.0563,0.0148,-0.0538,0.004,980.6792,37.92,-3.12,14.58,39.0,259.5717,-175.7316,-83.3149,52.1525,59.93229101,10.71991311,0.0
27.441966,-0.9868,0.0765,-0.1309,0.0421,0.0148,-0.1445,0.0392,0.0732,0.0162,980.6904,38.4,-2.82,14.58,39.0,262.429,-175.7041,-83.3124,52.1525,59.93229101,10.71991311,0.0
27.500081,-1.0156,0.0872,-0.1129,-0.2445,0.1192,0.0662,-0.0359,0.0079,-0.0223,980.6904,38.34,-2.46,14.46,37.0,264.2253,-175.6987,-83.115,52.1525,59.93229101,10.71991311,0.0
27.558604,-0.9856,0.0677,-0.1331,0.0509,-0.0652,-0.1357,-0.0017,0.0354,-0.0119,980.6699,38.52,-2.58,14.16,37.0,263.7311,-175.7406,-83.1336,50.4406,59.93229101,10.71991311,0.0
27.61751,-1.0122,0.0811,-0.1285,-0.2118,0.0709,-0.0732,0.0087,-0.0068,-0.0058,980.6699,38.46,-2.52,13.74,37.0,266.7726,-175.766,-83.0334,50.4406,59.93229101,10.71991311,0.0
27.678746,-1.0005,0.0784,-0.1261,-0.0982,0.0456,-0.0383,0.016,0.0164,0.0052,980.6812,38.4,-2.34,14.88,37.0,266.6467,-175.7723,-82.9691,50.4406,59.93229101,10.71991311,0.0
27.738861,-1.0051,0.0855,-0.119,-0.1443,0.1124,0.0352,0.0075,-0.0068,0.0015,980.6753,38.22,-2.22,14.1,37.0,266.4188,-175.7571,-82.9447,50.4406,59.93229101,10.71991311,0.0
27.80171,-1.0,0.0794,-0.1302,-0.0954,0.0492,-0.0658,0.013,0.0329,0.0064,980.6753,38.58,-2.16,14.46,37.0,266.5143,-175.7372,-82.8911,50.4406,59.93229101,10.71991311,0.0
27.858505,-1.0044,0.0792,-0.1273,-0.1399,0.0424,-0.0287,-0.0066,-0.0086,-0.0009,980.6711,38.88,-1.92,14.04,37.0,267.5353,-175.7118,-82.8412,50.7641,59.93229101,10.71991311,0.0
27.919043,-1.0005,0.0818,-0.1283,-0.1023,0.0666,-0.0341,-0.0017,0.017,0.0027,980.6711,38.64,-2.22,14.64,36.0,268.9406,-175.699,-82.8162,50.7641,59.93229101,10.71991311,0.0
27.978681,-1.001,0.0792,-0.1334,-0.1085,0.0362,-0.0753,-0.0096,0.0091,-0.0027,980.6648,38.34,-3.3,15.72,36.0,266.3997,-175.6752,-82.7628,50.7641,59.93229101,10.71991311,0.0
28.038948,-1.0005,0.0782,-0.1307,-0.1047,0.0247,-0.0428,-0.0053,0.0073,-0.0009,980.6738,38.22,-2.82,15.3,36.0,267.4384,-175.6638,-82.7258,50.7641,59.93229101,10.71991311,0.0
28.098423,-1.0014,0.0816,-0.1283,-0.1144,0.0571,-0.0187,-0.0035,-0.0233,-0.0015,980.6738,36.66,-4.2,15.3,36.0,266.3491,-175.6571,-82.725,50.7641,59.93229101,10.71991311,0.0
28.158301,-0.9946,0.0799,-0.141,-0.0461,0.0394,-0.1537,0.0069,0.0115,0.0003,980.696,38.58,-3.12,14.4,36.0,266.3437,-175.6516,-82.7872,51.0436,59.93229101,10.71991311,0.0
28.219451,-1.0083,0.0796,-0.1207,-0.1817,0.0361,0.0571,-0.0115,-0.0343,-0.0095,980.696,38.22,-1.8,15.48,36.0,266.3225,-175.6467,-82.7155,51.0436,59.93229101,10.71991311,0.0
28.278579,-0.9975,0.0836,-0.1341,-0.0731,0.0775,-0.0991,0.0057,-0.0019,-0.007,980.696,38.1,-3.3,15.48,36.0,263.513,-175.6649,-82.8609,51.0436,59.93229101,10.71991311,0.0
28.337516,-0.9902,0.0687,-0.1385,-0.0036,-0.0727,-0.1263,-0.031,0.0402,-0.0199,980.6982,38.82,-2.64,14.58,36.0,263.9092,-175.6403,-82.7667,51.0436,59.93229101,10.71991311,0.0
28.397411,-1.0063,0.0853,-0.1224,-0.163,0.0981,0.0474,0.0032,-0.0257,-0.0076,980.6982,37.86,-3.54,15.06,36.0,264.0464,-175.6872,-82.6744,51.0436,59.93229101,10.71991311,0.0
28.459349,-1.0105,0.084,-0.1231,-0.204,0.091,0.0459,-0.0053,0.0347,-0.0095,980.6851,38.1,-2.82,14.52,36.0,263.5927,-175.7156,-82.6411,49.918,59.93229101,10.71991311,0.0
28.51811,-0.9878,0.0774,-0.1327,0.0172,0.0293,-0.0351,-0.0011,0.0225,-0.0021,980.6851,39.12,-1.56,15.06,36.0,268.7995,-175.733,-82.568,49.918,59.93229101,10.71991311,0.0
28.579004,-1.0041,0.0816,-0.1273,-0.1427,0.0678,0.0123,-0.02,-0.0099,-0.004,980.6855,38.46,-2.1,14.16,36.0,269.5563,-175.7201,-82.599,49.918,59.93229101,10.71991311,0.0
28.641851,-0.9992,0.0743,-0.1346,-0.0947,-0.0062,-0.0614,0.0044,0.0128,0.0058,980.6865,38.46,-2.76,15.06,36.0,266.7458,-175.7073,-82.6099,49.918,59.93229101,10.71991311,0.0
28.698896,-0.9995,0.0777,-0.1353,-0.0981,0.0243,-0.0622,0.0002,-0.0105,0.004,980.6865,37.8,-3.24,15.96,34.0,264.544,-175.6896,-82.5725,49.918,59.93229101,10.71991311,0.0
28.758539,-1.0002,0.0821,-0.1327,-0.1052,0.0654,-0.0384,0.0008,0.0073,0.0009,980.6799,38.58,-2.46,13.98,34.0,266.343,-175.6781,-82.587,50.5664,59.93229101,10.71991311,0.0
28.819381,-1.0,0.0774,-0.1336,-0.1038,0.0176,-0.0412,-0.0011,-0.005,-0.0015,980.6799,38.34,-3.48,15.24,34.0,265.0387,-175.6644,-82.5472,50.5664,59.93229101,10.71991311,0.0
28.880771,-0.9978,0.0784,-0.1373,-0.0815,0.0265,-0.0831,0.0026,-0.0056,-0.0009,980.6702,38.46,-2.28,14.88,34.0,263.0886,-175.6606,-82.5821,50.5664,59.93229101,10.71991311,0.0
28.940305,-1.0049,0.0816,-0.1287,-0.1515,0.0581,0.0052,0.0044,-0.0123,-0.0009,980.6377,38.7,-3.3,15.24,36.0,263.0946,-175.6634,-82.5557,50.5664,59.93229101,10.71991311,0.0
28.9986,-0.9919,0.0789,-0.1424,-0.0231,0.0311,-0.1413,0.013,-0.005,-0.0015,980.6377,38.16,-3.0,14.82,36.0,263.1696,-175.6591,-82.6287,50.5664,59.93229101,10.71991311,0.0
29.059393,-1.0051,0.0784,-0.1295,-0.1543,0.025,0.0001,-0.0041,0.0011,-0.0089,980.647,38.52,-2.28,15.12,36.0,263.138,-175.6514,-82.5429,49.4032,59.93229101,10.71991311,0.0
29.118729,-0.9926,0.0801,-0.1346,-0.0299,0.0442,-0.0669,-0.0035,-0.0129,-0.0119,980.647,37.86,-3.6,15.78,36.0,262.4525,-175.6658,-82.6422,49.4032,59.93229101,10.71991311,0.0
29.182679,-0.9924,0.066,-0.1454,-0.0289,-0.0961,-0.1625,0.0258,0.028,0.0156,980.6472,38.22,-2.82,14.16,36.0,263.1998,-175.6573,-82.5843,49.4032,59.93229101,10.71991311,0.0
29.240262,-1.0041,0.0811,-0.1283,-0.1472,0.054,0.0321,0.0008,-0.0007,-0.0101,980.6497,38.94,-2.04,14.46,36.0,265.4798,-175.6674,-82.4249,49.4032,59.93229101,10.71991311,0.0
29.300264,-0.9868,0.0711,-0.1451,0.0236,-0.0406,-0.1374,-0.009,0.0201,-0.0082,980.6497,38.34,-2.88,15.66,34.0,265.7171,-175.6881,-82.4507,49.4032,59.93229101,10.71991311,0.0
29.358182,-1.0058,0.0774,-0.1451,-0.1649,0.0236,-0.1232,0.0008,0.0311,-0.0021,980.6262,38.22,-2.7,15.6,34.0,265.3461,-175.6998,-82.367,49.9871,59.93229101,10.71991311,0.0
29.418753,-0.9939,0.0818,-0.1459,-0.0486,0.0653,-0.1235,0.002,-0.0123,0.0034,980.6262,37.74,-2.58,14.82,34.0,264.077,-175.6913,-82.3259,49.9871,59.93229101,10.71991311,0.0
29.481205,-1.0095,0.0779,-0.1351,-0.2023,0.0247,-0.016,0.0014,0.0011,0.0009,980.6328,38.88,-2.4,15.0,34.0,264.7739,-175.6779,-82.3132,49.9871,59.93229101,10.71991311,0.0
29.539267,-0.9946,0.0755,-0.14,-0.0574,-0.001,-0.0564,0.0081,0.0134,0.0015,980.6538,39.12,-2.16,15.06,34.0,266.3857,-175.6679,-82.2687,49.9871,59.93229101,10.71991311,0.0
29.59803,-1.0017,0.0789,-0.1383,-0.1271,0.0309,-0.0382,-0.0047,-0.0117,-0.0046,980.6538,38.88,-2.28,15.06,34.0,268.2898,-175.6583,-82.2602,49.9871,59.93229101,10.71991311,0.0
29.658425,-0.9988,0.0792,-0.1412,-0.0988,0.0337,-0.0639,0.002,0.0146,-0.0034,980.6501,39.9,-2.1,15.0,34.0,269.1992,-175.6606,-82.2424,50.8031,59.93229101,10.71991311,0.0
29.719731,-1.0005,0.0779,-0.139,-0.1158,0.0227,-0.0403,0.0014,-0.0257,-0.0046,980.6501,37.74,-3.36,14.4,34.0,266.7309,-175.6663,-82.2299,50.8031,59.93229101,10.71991311,0.0
29.777231,-1.0002,0.0801,-0.1407,-0.1125,0.0467,-0.0618,-0.0121,0.0079,-0.0131,980.645,39.0,-2.16,14.82,34.0,261.076,-175.6806,-82.2586,50.8031,59.93229101,10.71991311,0.0
29.839226,-1.0014,0.0796,-0.1351,-0.124,0.0447,-0.0089,-0.006,-0.0325,-0.007,980.635,37.98,-3.0,14.94,34.0,261.1136,-175.6968,-82.2711,50.8031,59.93229101,10.71991311,0.0
29.906624,-0.9951,0.0787,-0.1429,-0.0601,0.0349,-0.0976,0.0069,0.0036,0.0015,980.635,38.52,-2.7,15.06,34.0,261.1349,-175.6959,-82.3427,50.8031,59.93229101,10.71991311,0.0
29.959024,-1.0041,0.074,-0.1385,-0.1476,-0.0102,-0.0627,0.0099,-0.0728,0.0009,980.6272,37.86,-3.42,16.32,34.0,261.1427,-175.6977,-82.3914,51.2092,59.93229101,10.71991311,0.0
30.018322,-0.9926,0.0777,-0.1363,-0.0319,0.0252,-0.0654,0.0374,0.0005,0.018,980.6272,38.76,-1.74,14.34,34.0,265.6537,-175.695,-82.5347,51.2092,59.93229101,10.71991311,0.0
30.078214,-1.0054,0.0909,-0.1353,-0.1583,0.1474,-0.0452,-0.0402,0.0244,-0.0113,980.6375,38.28,-3.06,16.08,34.0,266.1157,-175.6532,-82.4712,51.2092,59.93229101,10.71991311,0.0
30.145954,-0.997,0.0728,-0.1385,-0.0763,-0.027,-0.079,-0.0053,-0.0092,-0.0095,980.6306,38.7,-2.76,14.94,34.0,266.0113,-175.6696,-82.4873,51.2092,59.93229101,10.71991311,0.0
30.197995,-1.0068,0.0838,-0.1334,-0.1725,0.0873,-0.0222,0.0105,-0.008,-0.0058,980.6306,38.28,-3.36,15.36,34.0,264.0475,-175.7084,-82.4492,51.2092,59.93229101,10.71991311,0.0
30.258402,-0.9951,0.0818,-0.1349,-0.0566,0.0709,-0.042,-0.0151,-0.0129,-0.0137,980.6306,38.94,-2.22,14.82,34.0,265.2557,-175.7245,-82.4812,50.3852,59.93229101,10.71991311,0.0
30.317738,-0.999,0.0836,-0.1344,-0.0942,0.0878,-0.043,-0.0151,-0.0129,-0.0137,980.6306,35.82,-5.28,18.54,34.0,260.8431,-175.725,-82.5155,50.3852,59.93229101,10.71991311,0.0
30.382944,-1.0029,0.0716,-0.1334,-0.1305,-0.0299,-0.0488,0.0008,-0.0147,-0.0027,980.6384,37.98,-3.66,14.88,34.0,258.2603,-175.7227,-82.6065,50.3852,59.93229101,10.71991311,0.0
30.438027,-0.999,0.0792,-0.1324,-0.093,0.0447,-0.0329,0.002,0.0073,0.0009,980.6482,37.8,-3.3,16.62,34.0,259.1952,-175.725,-82.569,50.3852,59.93229101,10.71991311,0.0
30.497186,-1.0,0.0774,-0.13,-0.1014,0.0283,-0.0176,0.002,0.0073,0.0009,980.6482,37.86,-2.7,13.98,36.0,263.557,-175.7269,-82.6201,50.3852,59.93229101,10.71991311,0.0
30.558391,-1.0017,0.0765,-0.1312,-0.1184,0.0189,-0.0279,-0.0017,0.0134,-0.0027,980.6445,38.76,-2.52,14.16,36.0,263.9052,-175.7283,-82.6101,49.9753,59.93229101,10.71991311,0.0
30.617845,-1.0005,0.0752,-0.1341,-0.1067,0.0092,-0.0529,-0.006,-0.0001,-0.0064,980.6445,37.74,-3.06,15.24,36.0,265.0192,-175.7415,-82.5887,49.9753,59.93229101,10.71991311,0.0
30.678328,-1.0049,0.0804,-0.13,-0.1492,0.0618,-0.0156,-0.0011,-0.0227,-0.0052,980.6641,38.28,-3.36,15.6,36.0,262.7406,-175.7552,-82.6088,49.9753,59.93229101,10.71991311,0.0
30.747468,-0.997,0.0765,-0.1378,-0.0714,0.0238,-0.101,0.005,0.0066,-0.0009,980.6599,35.58,-5.52,17.76,39.0,256.5814,-175.7566,-82.6604,49.9753,59.93229101,10.71991311,0.0
30.797936,-1.0122,0.077,-0.1153,-0.2204,0.0274,0.1229,0.0093,-0.0514,0.0009,980.6599,33.84,-7.5,20.52,39.0,256.5779,-175.7502,-82.6391,49.9753,59.93229101,10.71991311,0.0
30.857776,-0.9966,0.0806,-0.139,-0.0636,0.0612,-0.1383,0.0258,0.0066,0.0095,980.6562,35.46,-6.78,18.96,39.0,256.6382,-175.7376,-82.8099,50.2055,59.93229101,10.71991311,0.0
30.917372,-1.0085,0.0845,-0.1344,-0.1841,0.0905,-0.0733,0.0032,-0.0001,0.0125,980.6562,33.42,-8.58,20.82,40.0,256.5908,-175.6849,-82.6942,50.2055,59.93229101,10.71991311,0.0
30.978433,-0.9939,0.074,-0.1336,-0.0396,-0.0118,-0.0722,-0.0005,-0.0123,-0.0119,980.6646,36.18,-5.4,18.96,40.0,256.5351,-175.6887,-82.7301,50.2055,59.93229101,10.71991311,0.0
31.046002,-1.01,0.0823,-0.1278,-0.1991,0.0743,-0.0009,0.005,0.0207,-0.0076,980.6755,37.62,-4.2,16.98,40.0,256.5963,-175.7159,-82.6486,50.2055,59.93229101,10.71991311,0.0
31.097798,-0.9941,0.0821,-0.1378,-0.0424,0.0744,-0.1059,-0.0273,-0.0013,-0.0156,980.6755,36.9,-4.8,18.96,36.0,256.6298,-175.7304,-82.6894,50.2055,59.93229101,10.71991311,0.0
31.158793,-1.0049,0.0733,-0.1212,-0.1462,-0.0099,0.0463,-0.017,-0.052,0.0052,980.6777,37.92,-3.24,16.92,36.0,256.5721,-175.7415,-82.7521,50.4057,59.93229101,10.71991311,0.0
31.21841,-0.9997,0.0757,-0.1275,-0.0948,0.0107,-0.0268,0.0118,0.0317,0.0089,980.6777,38.28,-1.98,15.12,36.0,256.5045,-175.7221,-82.8158,50.4057,59.93229101,10.71991311,0.0
31.279427,-0.9985,0.0836,-0.1302,-0.085,0.0839,-0.038,0.0148,-0.0129,0.0064,980.6785,38.34,-2.76,15.24,36.0,262.402,-175.7024,-82.7262,50.4057,59.93229101,10.71991311,0.0
31.33917,-1.001,0.084,-0.1292,-0.1075,0.085,-0.0423,0.0002,-0.005,0.0027,980.6709,38.64,-3.0,15.06,36.0,262.9353,-175.6805,-82.8081,50.4057,59.93229101,10.71991311,0.0
31.397655,-1.0022,0.0794,-0.129,-0.1211,0.036,-0.0289,0.0038,0.0231,0.004,980.6709,37.5,-4.5,16.68,36.0,261.3502,-175.6601,-82.7429,50.4057,59.93229101,10.71991311,0.0
31.457948,-0.9992,0.0784,-0.1327,-0.0929,0.025,-0.0616,-0.0005,-0.008,-0.0015,980.689,38.52,-3.0,15.48,36.0,262.4222,-175.652,-82.7241,49.3916,59.93229101,10.71991311,0.0
31.517928,-1.0051,0.0779,-0.1292,-0.1502,0.0198,-0.0295,0.0057,0.0005,-0.0003,980.689,38.52,-2.76,14.46,36.0,264.6874,-175.6492,-82.7324,49.3916,59.93229101,10.71991311,0.0
31.579846,-1.0017,0.0806,-0.1346,-0.117,0.0453,-0.0803,-0.0005,-0.0013,-0.0027,980.6846,38.64,-2.52,14.34,36.0,265.1812,-175.6446,-82.7211,49.3916,59.93229101,10.71991311,0.0
31.645476,-0.997,0.0814,-0.1344,-0.0721,0.0503,-0.0745,-0.009,-0.0141,-0.0052,980.6948,38.1,-2.82,13.98,36.0,265.6819,-175.6316,-82.7006,49.3916,59.93229101,10.71991311,0.0
31.69601,-0.9953,0.0818,-0.1273,-0.0533,0.055,-0.0213,0.013,0.0182,0.0009,980.6948,38.46,-2.82,15.06,36.0,264.1411,-175.6313,-82.797,49.3916,59.93229101,10.71991311,0.0
31.756128,-0.9944,0.0809,-0.1331,-0.047,0.0396,-0.0568,0.0209,0.0299,0.0125,980.6968,38.46,-2.76,14.94,36.0,264.0271,-175.5968,-82.6665,49.2045,59.93229101,10.71991311,0.0
31.816981,-1.0051,0.0892,-0.1351,-0.1528,0.1187,-0.0741,-0.0518,-0.0037,-0.0223,980.6968,38.4,-2.94,15.12,36.0,264.8786,-175.5832,-82.6555,49.2045,59.93229101,10.71991311,0.0
31.878423,-0.9951,0.0687,-0.1375,-0.0556,-0.0759,-0.0862,-0.0102,0.0586,-0.0082,980.6814,38.28,-3.6,16.14,36.0,261.8495,-175.6216,-82.5861,49.2045,59.93229101,10.71991311,0.0
31.938371,-1.0073,0.0884,-0.1307,-0.1767,0.1211,-0.0072,0.005,-0.0373,-0.0009,980.6941,38.64,-3.0,15.06,34.0,262.6083,-175.6394,-82.5155,49.2045,59.93229101,10.71991311,0.0
32.002271,-0.9922,0.0774,-0.1378,-0.029,0.0123,-0.0717,0.0093,0.0329,0.0021,980.6941,37.92,-3.18,15.24,34.0,262.8624,-175.6333,-82.486,49.2045,59.93229101,10.71991311,0.0
32.056973,-1.0044,0.0845,-0.1292,-0.1492,0.0792,0.0145,-0.0011,-0.0398,-0.0015,980.7151,38.28,-3.42,15.42,34.0,262.624,-175.6184,-82.4721,49.4996,59.93229101,10.71991311,0.0
32.117426,-0.9975,0.0767,-0.1395,-0.0802,0.0,-0.1024,0.0063,0.0109,0.0058,980.7151,38.22,-3.12,14.82,34.0,260.9896,-175.6035,-82.5682,49.4996,59.93229101,10.71991311,0.0
32.182531,-1.001,0.0818,-0.1361,-0.1145,0.0489,-0.0637,-0.0011,-0.0251,-0.004,980.697,38.82,-2.58,15.18,34.0,268.999,-175.5952,-82.5378,49.4996,59.93229101,10.71991311,0.0
32.238891,-1.0029,0.0789,-0.1341,-0.1322,0.0209,-0.0552,-0.0047,0.0024,-0.004,980.7117,38.34,-2.46,14.46,34.0,267.4776,-175.5997,-82.6008,49.4996,59.93229101,10.71991311,0.0
32.296455,-0.997,0.0787,-0.1356,-0.0756,0.0183,-0.0632,-0.0041,-0.016,-0.0015,980.7117,36.18,-4.92,16.26,34.0,260.646,-175.5984,-82.5632,49.4996,59.93229101,10.71991311,0.0
32.357887,-1.0005,0.0833,-0.1317,-0.1062,0.0619,-0.0481,-0.0023,-0.052,0.0034,980.7004,37.92,-3.72,15.96,34.0,260.4182,-175.5871,-82.7002,49.3109,59.93229101,10.71991311,0.0
32.417969,-1.0029,0.0796,-0.1253,-0.1283,0.0219,-0.0031,0.002,-0.0208,0.0034,980.7004,38.76,-3.3,14.64,34.0,261.4564,-175.5635,-82.802,49.3109,59.93229101,10.71991311,0.0
32.476971,-0.9968,0.0848,-0.1353,-0.0677,0.0685,-0.1092,0.0057,-0.0031,0.0064,980.6987,37.98,-3.36,15.0,34.0,262.6653,-175.5415,-82.8485,49.3109,59.93229101,10.71991311,0.0
32.538023,-1.0054,0.0818,-0.1202,-0.15,0.0373,0.0253,0.0038,-0.0654,0.0021,980.7046,38.58,-2.46,15.12,36.0,263.0992,-175.5273,-82.9306,49.3109,59.93229101,10.71991311,0.0
32.596564,-0.9897,0.0828,-0.1319,0.0047,0.0434,-0.1041,0.0344,0.0543,0.0125,980.7046,38.34,-2.52,13.74,36.0,264.1231,-175.507,-83.0158,49.3109,59.93229101,10.71991311,0.0
32.65667,-1.0124,0.0943,-0.13,-0.223,0.1525,-0.0461,-0.0408,0.0433,-0.0254,980.7209,38.4,-2.82,14.46,36.0,264.6463,-175.4867,-82.7861,49.7198,59.93229101,10.71991311,0.0
32.718254,-0.9861,0.0733,-0.139,0.0362,-0.0452,-0.1349,0.0002,-0.0111,-0.0174,980.7209,37.56,-3.96,14.88,37.0,262.9011,-175.5349,-82.7879,49.7198,59.93229101,10.71991311,0.0
32.774626,-1.0105,0.086,-0.1273,-0.2052,0.0874,0.0007,0.0081,0.0439,-0.0113,980.7305,36.9,-5.4,17.22,37.0,260.1429,-175.5825,-82.6664,49.7198,59.93229101,10.71991311,0.0
32.838423,-0.9895,0.0796,-0.1292,-0.002,0.0298,0.0053,0.0044,0.0128,-0.0058,980.7231,38.76,-2.1,14.04,37.0,258.4155,-175.6098,-82.5264,49.7198,59.93229101,10.71991311,0.0
32.897431,-1.0007,0.084,-0.1287,-0.1111,0.0759,0.004,-0.0163,-0.0056,-0.0156,980.7231,38.46,-2.7,14.82,34.0,261.0405,-175.6273,-82.5623,49.7198,59.93229101,10.71991311,0.0
32.956653,-1.0014,0.0745,-0.1334,-0.1195,-0.016,-0.0314,0.0111,0.0329,-0.0009,980.7051,38.34,-3.54,14.94,34.0,262.5365,-175.6356,-82.5027,49.4016,59.93229101,10.71991311,0.0
33.01721,-1.0005,0.0821,-0.1353,-0.1107,0.0595,-0.0438,-0.0047,-0.0227,-0.0095,980.7051,38.16,-2.46,14.64,34.0,263.146,-175.6435,-82.4629,49.4016,59.93229101,10.71991311,0.0
33.076083,-1.0014,0.0779,-0.1361,-0.1184,0.0222,-0.0637,0.0014,-0.005,-0.0027,980.6997,37.98,-3.84,15.18,34.0,263.1812,-175.6636,-82.5386,49.4016,59.93229101,10.71991311,0.0
33.136438,-0.9963,0.0792,-0.1339,-0.0687,0.0355,-0.0366,-0.0011,-0.0025,-0.0046,980.6885,38.76,-2.64,14.34,34.0,263.3297,-175.6712,-82.5058,49.4016,59.93229101,10.71991311,0.0
33.197995,-1.001,0.0811,-0.1327,-0.1137,0.055,-0.0284,-0.0035,-0.0099,-0.0015,980.6885,38.16,-3.12,15.24,34.0,262.31,-175.6729,-82.528,49.4016,59.93229101,10.71991311,0.0
33.258293,-1.0027,0.0801,-0.1263,-0.1296,0.0443,0.0269,-0.0066,-0.0233,-0.0021,980.686,38.52,-3.24,14.88,34.0,264.3848,-175.6665,-82.569,48.9545,59.93229101,10.71991311,0.0
33.316967,-0.9907,0.0774,-0.1415,-0.0111,0.017,-0.1317,0.0057,0.0152,0.0015,980.686,38.76,-3.0,15.66,34.0,264.1452,-175.6606,-82.629,48.9545,59.93229101,10.71991311,0.0
33.376853,-1.0095,0.0779,-0.1187,-0.1969,0.0215,0.1017,-0.0096,-0.0349,-0.004,980.6777,37.56,-3.78,15.18,34.0,262.5749,-175.659,-82.5655,48.9545,59.93229101,10.71991311,0.0
33.439931,-0.9953,0.0836,-0.1331,-0.0551,0.0787,-0.0606,0.0063,0.0115,-0.0034,980.658,38.4,-3.24,14.76,34.0,261.5745,-175.6717,-82.6899,48.9545,59.93229101,10.71991311,0.0
33.497657,-0.9997,0.0792,-0.1476,-0.1019,0.0296,-0.1767,-0.0231,0.0671,-0.0113,980.658,38.34,-2.46,15.12,34.0,263.5172,-175.6366,-82.5408,48.9545,59.93229101,10.71991311,0.0
33.556073,-0.9912,0.0687,-0.1397,-0.0207,-0.0695,-0.0786,0.0081,-0.0361,-0.0021,980.6682,38.4,-3.18,16.5,34.0,263.6111,-175.6591,-82.4139,49.822,59.93229101,10.71991311,0.0
33.616415,-1.0061,0.0845,-0.1283,-0.1659,0.0879,0.029,0.0087,0.0225,-0.0027,980.6682,37.44,-4.32,17.52,34.0,258.4539,-175.6693,-82.4431,49.822,59.93229101,10.71991311,0.0
33.676253,-1.0012,0.0816,-0.1468,-0.1204,0.0601,-0.1351,0.0002,0.0378,-0.0015,980.6614,36.42,-4.38,17.22,34.0,258.4993,-175.6747,-82.3376,49.822,59.93229101,10.71991311,0.0
33.739357,-1.0027,0.0848,-0.1368,-0.1342,0.0885,-0.0425,-0.0139,-0.0135,-0.0021,980.6853,39.36,-2.82,14.52,34.0,259.7285,-175.6589,-82.3703,49.822,59.93229101,10.71991311,0.0
33.796835,-1.0024,0.0745,-0.1363,-0.1308,-0.0134,-0.0455,0.016,-0.027,0.0058,980.6853,38.16,-3.24,15.78,34.0,258.6615,-175.651,-82.4162,49.822,59.93229101,10.71991311,0.0
33.858503,-0.9975,0.0831,-0.1353,-0.0824,0.0714,-0.0396,0.0026,0.0011,-0.0064,980.6985,38.76,-2.04,14.76,34.0,260.7465,-175.6567,-82.4384,49.8022,59.93229101,10.71991311,0.0
33.91917,-0.9995,0.0784,-0.1351,-0.1005,0.03,-0.043,-0.0078,-0.016,-0.0137,980.6985,38.34,-2.88,14.16,34.0,262.0074,-175.6808,-82.4728,49.8022,59.93229101,10.71991311,0.0
33.97609,-1.0029,0.0804,-0.1371,-0.1333,0.0529,-0.065,-0.0084,0.0005,-0.0107,980.7034,37.98,-3.72,16.26,34.0,262.1222,-175.7029,-82.4899,49.8022,59.93229101,10.71991311,0.0
34.038948,-1.0014,0.0757,-0.1341,-0.1194,0.0108,-0.0307,-0.0023,-0.0013,-0.0107,980.7053,38.76,-2.88,14.58,34.0,258.6606,-175.7228,-82.4573,49.8022,59.93229101,10.71991311,0.0
34.100125,-1.0017,0.0765,-0.1341,-0.1202,0.0223,-0.0403,-0.0023,-0.0325,-0.0125,980.7053,38.16,-2.1,15.3,34.0,264.3563,-175.7482,-82.514,49.8022,59.93229101,10.71991311,0.0
34.15834,-0.9978,0.0757,-0.1383,-0.0795,0.0199,-0.0971,0.005,-0.0221,-0.0082,980.7134,37.56,-3.6,17.04,34.0,265.6771,-175.7763,-82.6094,49.9681,59.93229101,10.71991311,0.0
34.217964,-1.0071,0.0799,-0.1263,-0.1706,0.0614,0.0221,-0.0102,-0.0294,-0.0095,980.7134,38.82,-2.7,14.34,34.0,264.0286,-175.7806,-82.5985,49.9681,59.93229101,10.71991311,0.0
34.277084,-0.997,0.0806,-0.119,-0.0676,0.069,0.0562,0.0197,-0.0489,0.0021,980.7036,38.28,-2.52,14.4,34.0,264.6279,-175.783,-82.8213,49.9681,59.93229101,10.71991311,0.0
34.340399,-0.9995,0.074,-0.1339,-0.0921,-0.0018,-0.0894,0.0344,0.0256,0.0174,980.7043,38.64,-2.64,14.76,36.0,265.0263,-175.7474,-82.818,49.9681,59.93229101,10.71991311,0.0
34.396577,-1.0049,0.0887,-0.129,-0.1461,0.1386,-0.0328,-0.0237,-0.0245,-0.0186,980.7043,38.82,-2.4,15.12,36.0,264.5681,-175.7279,-82.7667,49.9681,59.93229101,10.71991311,0.0
34.456316,-0.9958,0.0706,-0.1292,-0.056,-0.0339,-0.0447,-0.0078,0.0091,-0.0064,980.6975,38.28,-3.06,15.78,36.0,265.0668,-175.7554,-82.8228,49.2601,59.93229101,10.71991311,0.0
34.517249,-1.0019,0.0789,-0.1373,-0.1155,0.0494,-0.1249,0.0008,-0.019,-0.0009,980.6975,38.34,-3.06,15.42,41.0,264.9636,-175.7667,-82.8299,49.2601,59.93229101,10.71991311,0.0
34.577261,-1.0,0.0799,-0.1273,-0.0968,0.06,-0.0224,0.0008,0.003,0.0003,980.709,36.96,-4.2,16.74,41.0,262.8875,-175.7725,-82.8046,49.2601,59.93229101,10.71991311,0.0
34.63952,-1.0063,0.0782,-0.1192,-0.1579,0.0403,0.0451,-0.0157,-0.0422,-0.0046,980.6995,38.7,-2.34,14.76,41.0,263.6297,-175.7553,-82.8725,49.2601,59.93229101,10.71991311,0.0
34.69815,-1.0019,0.0701,-0.1275,-0.1132,-0.0419,-0.0505,-0.0157,-0.0422,-0.0046,980.6995,38.58,-3.72,14.46,37.0,262.8231,-175.7366,-82.9562,49.2601,59.93229101,10.71991311,0.0
34.756496,-1.0029,0.0804,-0.1258,-0.123,0.055,-0.0343,-0.0035,-0.0373,0.0009,980.7024,38.22,-2.94,15.12,37.0,263.176,-175.7155,-82.9593,49.5211,59.93229101,10.71991311,0.0
34.816915,-1.0019,0.0814,-0.1226,-0.1114,0.0639,-0.0204,0.0032,-0.0068,0.0027,980.7024,38.88,-2.76,14.7,37.0,263.3141,-175.7112,-83.0606,49.5211,59.93229101,10.71991311,0.0
34.876329,-0.9995,0.0757,-0.1241,-0.0875,0.0083,-0.0348,0.0002,-0.008,-0.0064,980.7144,39.18,-2.34,14.22,37.0,267.8038,-175.708,-83.061,49.5211,59.93229101,10.71991311,0.0
34.938504,-0.9992,0.0757,-0.1231,-0.0836,0.011,-0.0359,0.0057,-0.0282,-0.0058,980.7087,38.34,-2.82,13.56,37.0,264.7323,-175.7238,-83.1239,49.5211,59.93229101,10.71991311,0.0
34.996239,-0.9983,0.0787,-0.1253,-0.0727,0.0403,-0.0681,0.0063,-0.0044,-0.004,980.7087,38.34,-2.34,13.98,37.0,265.3892,-175.7274,-83.1868,49.5211,59.93229101,10.71991311,0.0
35.056667,-1.001,0.0757,-0.1253,-0.1002,0.0112,-0.0586,0.0075,0.0042,-0.0015,980.7034,38.1,-2.76,13.86,37.0,264.7821,-175.7254,-83.1309,49.1952,59.93229101,10.71991311,0.0
35.115979,-1.0078,0.0765,-0.1153,-0.1648,0.0198,0.0203,0.0215,-0.041,-0.0009,980.7034,37.86,-2.76,16.02,39.0,262.7999,-175.7332,-83.2444,49.1952,59.93229101,10.71991311,0.0
35.182435,-0.9966,0.077,-0.1261,-0.0553,0.0232,-0.0809,0.0368,0.047,0.0125,980.6887,38.58,-3.18,14.88,39.0,264.2131,-175.7252,-83.2199,49.1952,59.93229101,10.71991311,0.0
35.238625,-1.009,0.0872,-0.127,-0.1793,0.1191,-0.0773,-0.0359,-0.0086,-0.0137,980.6782,37.62,-3.24,14.46,39.0,263.9405,-175.6981,-83.142,49.1952,59.93229101,10.71991311,0.0
35.296129,-0.9975,0.0638,-0.1261,-0.0663,-0.1052,-0.0683,0.0026,0.0268,-0.0101,980.6782,38.94,-2.22,14.64,37.0,265.8725,-175.7302,-83.146,49.1952,59.93229101,10.71991311,0.0
35.356851,-1.0102,0.0826,-0.12,-0.1919,0.085,0.0041,0.0075,-0.0147,-0.007,980.6782,38.1,-2.64,13.86,37.0,264.2169,-175.7647,-83.0723,49.7937,59.93229101,10.71991311,0.0
35.417072,-0.997,0.0801,-0.1261,-0.0624,0.0635,-0.0558,-0.0151,0.0097,-0.0113,980.6782,38.4,-2.76,14.4,37.0,265.1475,-175.7791,-83.0724,49.7937,59.93229101,10.71991311,0.0
35.477073,-1.0063,0.0799,-0.1195,-0.1532,0.0607,0.0075,-0.0188,-0.0184,-0.0076,980.6782,37.86,-3.12,15.18,37.0,264.1645,-175.7768,-83.0805,49.7937,59.93229101,10.71991311,0.0
35.538449,-1.0019,0.0735,-0.1268,-0.1096,-0.0045,-0.0707,0.005,0.0128,0.004,980.6899,38.7,-2.88,14.46,36.0,264.5071,-175.7593,-83.118,49.7937,59.93229101,10.71991311,0.0
35.59839,-1.0007,0.0814,-0.1226,-0.0985,0.0686,-0.0251,-0.0041,-0.0233,-0.0021,980.6899,37.44,-3.54,14.34,36.0,263.1804,-175.7386,-83.0889,49.7937,59.93229101,10.71991311,0.0
35.656693,-1.0024,0.0767,-0.1234,-0.1142,0.022,-0.0414,0.0002,0.0011,-0.0034,980.6855,38.22,-4.08,14.52,36.0,260.7008,-175.7323,-83.1428,50.7855,59.93229101,10.71991311,0.0
35.717299,-1.0002,0.0782,-0.1241,-0.0934,0.0357,-0.043,-0.0029,-0.0031,-0.0058,980.6855,38.76,-2.7,15.84,37.0,262.7117,-175.7283,-83.1096,50.7855,59.93229101,10.71991311,0.0
35.776517,-1.001,0.076,-0.1275,-0.1001,0.0155,-0.0798,0.0026,-0.0068,-0.0046,980.6716,38.4,-3.54,14.04,37.0,263.0246,-175.7365,-83.1289,50.7855,59.93229101,10.71991311,0.0
35.838431,-0.9997,0.0787,-0.1234,-0.0875,0.0433,-0.0436,0.002,-0.0208,-0.0052,980.6809,38.28,-2.76,15.0,37.0,263.0576,-175.7446,-83.1553,50.7855,59.93229101,10.71991311,0.0
35.89596,-0.9978,0.0762,-0.1292,-0.0681,0.0195,-0.1029,0.0026,0.0121,-0.004,980.6809,38.46,-2.88,14.64,37.0,263.0676,-175.7459,-83.1663,50.7855,59.93229101,10.71991311,0.0
35.956804,-1.0139,0.0787,-0.1085,-0.2268,0.0425,0.1057,0.0026,-0.0496,-0.0034,980.675,38.46,-2.16,14.4,37.0,263.0371,-175.7401,-83.1366,50.2571,59.93229101,10.71991311,0.0
36.016887,-0.9983,0.0789,-0.1151,-0.0708,0.0444,0.0174,0.0307,0.0018,0.0101,980.675,38.7,-2.46,14.82,37.0,263.7952,-175.7374,-83.2761,50.2571,59.93229101,10.71991311,0.0
36.074504,-1.0061,0.0831,-0.1239,-0.1501,0.0779,-0.0502,-0.009,-0.0074,0.0015,980.6716,37.38,-3.06,15.6,37.0,265.6537,-175.695,-83.1657,50.2571,59.93229101,10.71991311,0.0
36.138249,-0.9992,0.0706,-0.1244,-0.0825,-0.0439,-0.0597,-0.0078,0.0115,-0.0137,980.6721,36.24,-6.18,20.22,37.0,261.5507,-175.6971,-83.1937,50.2571,59.93229101,10.71991311,0.0
36.197889,-1.0044,0.0765,-0.1226,-0.1354,0.0178,-0.0186,0.0057,0.0274,-0.0034,980.6721,38.4,-2.28,14.04,37.0,261.5938,-175.7215,-83.0504,50.2571,59.93229101,10.71991311,0.0
36.261794,-1.0,0.0806,-0.1305,-0.0913,0.0597,-0.1027,-0.017,0.0005,-0.0052,980.6685,38.4,-3.3,14.04,37.0,261.8292,-175.7287,-83.0944,50.0364,59.93229101,10.71991311,0.0
36.316465,-1.0029,0.0794,-0.1226,-0.121,0.0454,-0.02,-0.0133,-0.0074,0.0064,980.6685,38.7,-2.94,15.0,37.0,263.7825,-175.715,-83.0585,50.0364,59.93229101,10.71991311,0.0
36.376658,-1.0054,0.0811,-0.1197,-0.1446,0.058,0.0038,0.0044,-0.0025,0.0082,980.6926,37.38,-3.54,16.32,37.0,261.2529,-175.6907,-83.0872,50.0364,59.93229101,10.71991311,0.0
36.437888,-0.9997,0.0838,-0.1241,-0.0903,0.0791,-0.036,0.0032,-0.0013,0.0089,980.6868,38.52,-2.94,14.52,37.0,263.7475,-175.66,-83.0674,50.0364,59.93229101,10.71991311,0.0
36.496622,-1.0036,0.0774,-0.1229,-0.1282,0.0123,-0.0311,-0.0078,-0.0092,0.0003,980.6868,39.18,-2.22,13.56,37.0,265.8051,-175.6331,-83.1091,50.0364,59.93229101,10.71991311,0.0
36.555699,-1.0032,0.0804,-0.1234,-0.1239,0.0384,-0.0328,-0.0053,0.0066,-0.0003,980.6992,38.76,-2.04,14.4,37.0,268.8495,-175.6181,-83.0909,50.1735,59.93229101,10.71991311,0.0
36.622527,-0.999,0.0801,-0.1253,-0.0831,0.0344,-0.0541,-0.0053,-0.0111,-0.0034,980.6992,37.8,-4.14,15.96,37.0,263.6237,-175.6086,-83.1033,50.1735,59.93229101,10.71991311,0.0
36.676685,-1.0051,0.0836,-0.1204,-0.143,0.0674,-0.006,-0.006,0.0005,-0.0021,980.6912,37.32,-4.32,15.96,37.0,260.4857,-175.6052,-83.1017,50.1735,59.93229101,10.71991311,0.0
36.740318,-1.0036,0.0794,-0.1219,-0.1284,0.0251,-0.0238,-0.0035,-0.0184,-0.004,980.6821,37.26,-3.72,15.72,37.0,260.1439,-175.596,-83.1221,50.1735,59.93229101,10.71991311,0.0
36.797893,-0.9988,0.0799,-0.1234,-0.0812,0.0282,-0.033,0.0044,0.028,-0.0003,980.6821,38.58,-2.94,15.48,37.0,260.1232,-175.5861,-83.0913,50.1735,59.93229101,10.71991311,0.0
36.85663,-1.0027,0.0794,-0.1185,-0.1188,0.024,0.0092,0.0124,-0.0606,0.0009,980.6953,38.34,-2.58,14.4,37.0,260.1376,-175.5897,-83.1254,49.4112,59.93229101,10.71991311,0.0
36.91526,-0.9978,0.085,-0.128,-0.0697,0.0781,-0.0953,0.0228,0.0518,0.0064,980.6953,39.36,-2.22,14.7,37.0,266.0502,-175.5843,-83.1908,49.4112,59.93229101,10.71991311,0.0
36.975825,-1.0149,0.0897,-0.1266,-0.2416,0.1217,-0.0461,-0.0432,0.0531,-0.0235,980.707,38.52,-2.52,14.4,37.0,266.0244,-175.573,-82.985,49.4112,59.93229101,10.71991311,0.0
37.036512,-0.9948,0.0743,-0.1268,-0.0457,-0.0222,-0.0408,-0.0066,0.0011,-0.0131,980.7124,38.4,-3.12,16.74,37.0,263.9266,-175.6133,-82.9402,49.4112,59.93229101,10.71991311,0.0
37.096683,-1.0085,0.0836,-0.1217,-0.1811,0.0755,0.0244,0.0057,0.0305,-0.007,980.7124,37.26,-3.3,16.68,36.0,262.9332,-175.6529,-82.8521,49.4112,59.93229101,10.71991311,0.0
37.157461,-0.9931,0.0777,-0.1251,-0.0324,0.0216,0.0097,0.0032,0.0115,-0.0027,980.7039,38.82,-2.76,14.82,36.0,264.884,-175.6738,-82.7413,49.6399,59.93229101,10.71991311,0.0
37.216809,-1.0075,0.0831,-0.1224,-0.1727,0.0741,0.0283,-0.0084,-0.0074,-0.007,980.7039,38.64,-2.52,15.66,36.0,265.4469,-175.6731,-82.7869,49.6399,59.93229101,10.71991311,0.0
37.276144,-0.9997,0.074,-0.1322,-0.0959,-0.0147,-0.0692,0.0136,0.0005,0.0015,980.6863,37.8,-3.78,14.28,36.0,263.6033,-175.6718,-82.7974,49.6399,59.93229101,10.71991311,0.0
37.344702,-1.001,0.0826,-0.129,-0.1071,0.0677,-0.0449,-0.0029,-0.0227,-0.0003,980.6743,39.0,-2.46,15.0,36.0,266.9077,-175.6635,-82.8374,49.6399,59.93229101,10.71991311,0.0
37.394983,-1.001,0.0779,-0.1275,-0.1069,0.0216,-0.0322,0.0014,0.0079,0.0021,980.6743,37.86,-3.66,14.34,36.0,263.5313,-175.6596,-82.8475,49.6399,59.93229101,10.71991311,0.0
37.455568,-0.9992,0.0796,-0.129,-0.0904,0.0362,-0.0463,0.0044,-0.0184,-0.0003,980.6797,38.88,-1.8,15.18,36.0,265.5998,-175.6474,-82.8457,49.8468,59.93229101,10.71991311,0.0
37.515965,-1.0027,0.0823,-0.1273,-0.1229,0.0619,-0.0378,0.0038,-0.0062,0.0003,980.6797,38.52,-2.34,15.18,36.0,265.781,-175.6432,-82.8945,49.8468,59.93229101,10.71991311,0.0
37.576067,-1.0002,0.0814,-0.1244,-0.0988,0.0501,-0.012,-0.0005,-0.0221,0.0003,980.6814,37.98,-3.06,14.58,36.0,264.5241,-175.6305,-82.9117,49.8468,59.93229101,10.71991311,0.0
37.63739,-0.9988,0.0804,-0.1307,-0.0828,0.0379,-0.0887,0.0105,-0.005,0.0034,980.6858,37.8,-4.08,16.5,36.0,262.3229,-175.6149,-82.9966,49.8468,59.93229101,10.71991311,0.0
37.695601,-0.9975,0.0767,-0.127,-0.072,-0.0,-0.0452,-0.0121,-0.0062,-0.0064,980.6858,38.82,-2.94,15.3,34.0,262.8228,-175.6031,-82.9516,49.8468,59.93229101,10.71991311,0.0
37.756662,-0.9983,0.0811,-0.1195,-0.0771,0.045,0.0134,-0.0011,0.0085,-0.0082,980.676,37.74,-3.66,15.6,34.0,262.8734,-175.6147,-83.0439,49.6352,59.93229101,10.71991311,0.0
37.816436,-0.9931,0.0716,-0.1473,-0.0294,-0.0513,-0.2401,0.0038,0.0415,0.0046,980.676,37.86,-3.3,14.94,34.0,262.674,-175.5975,-82.929,49.6352,59.93229101,10.71991311,0.0
37.876948,-1.0058,0.0804,-0.1222,-0.1568,0.0415,0.0336,-0.0011,-0.027,-0.0101,980.6641,38.4,-3.18,15.9,34.0,262.9759,-175.6363,-82.7694,49.6352,59.93229101,10.71991311,0.0
37.937532,-0.9973,0.0784,-0.129,-0.0712,0.0261,-0.0457,-0.0102,0.0427,-0.0119,980.6501,38.22,-2.76,15.06,37.0,263.0694,-175.6579,-82.8423,49.6352,59.93229101,10.71991311,0.0
37.994864,-1.0014,0.0804,-0.1476,-0.1149,0.0479,-0.2024,-0.0029,0.0097,-0.004,980.6501,37.38,-3.3,14.64,37.0,262.4956,-175.6738,-82.6931,49.6352,59.93229101,10.71991311,0.0
38.054556,-1.0032,0.084,-0.1324,-0.1313,0.0822,-0.0572,-0.0053,-0.0337,-0.0021,980.6597,38.52,-3.18,15.24,37.0,263.9734,-175.6643,-82.712,50.8337,59.93229101,10.71991311,0.0
38.116028,-1.0073,0.0774,-0.1268,-0.1721,0.0167,-0.002,0.0069,-0.0019,0.0058,980.6597,38.4,-3.3,16.26,34.0,261.8546,-175.6593,-82.7113,50.8337,59.93229101,10.71991311,0.0
38.175644,-0.9985,0.0826,-0.1322,-0.0857,0.0639,-0.0581,0.0057,-0.0202,0.0027,980.6494,38.64,-2.94,14.88,34.0,262.9011,-175.6409,-82.7313,50.8337,59.93229101,10.71991311,0.0
38.238698,-1.0012,0.0816,-0.1305,-0.1106,0.052,-0.0545,-0.0066,-0.0031,-0.0015,980.657,39.0,-2.34,14.64,34.0,265.5897,-175.6275,-82.8088,50.8337,59.93229101,10.71991311,0.0
38.298146,-1.0044,0.0811,-0.1268,-0.1433,0.0447,-0.0071,-0.0023,0.0024,0.0009,980.657,39.0,-3.0,15.9,36.0,264.9167,-175.6129,-82.7411,50.8337,59.93229101,10.71991311,0.0
38.357125,-0.9951,0.0782,-0.1295,-0.0512,0.0148,-0.0431,0.0014,-0.0153,0.0003,980.656,38.82,-3.42,14.82,36.0,264.8062,-175.6059,-82.7978,49.939,59.93229101,10.71991311,0.0
38.415828,-1.001,0.0826,-0.1287,-0.1093,0.0565,-0.0318,0.0075,0.0146,-0.0003,980.656,39.12,-2.46,15.36,36.0,265.4382,-175.5976,-82.7734,49.939,59.93229101,10.71991311,0.0
38.47579,-1.0024,0.0821,-0.1295,-0.1229,0.0527,-0.0446,0.0093,-0.0331,-0.0003,980.6355,37.74,-3.18,14.76,36.0,264.9818,-175.6033,-82.8067,49.939,59.93229101,10.71991311,0.0
38.53938,-0.9929,0.0816,-0.1368,-0.0299,0.0466,-0.1141,0.0093,-0.0331,-0.0003,980.6418,38.76,-2.46,14.28,37.0,266.2421,-175.5959,-82.7928,49.939,59.93229101,10.71991311,0.0
38.596353,-0.9992,0.0782,-0.1327,-0.0916,0.0136,-0.0772,0.0148,-0.0575,-0.0027,980.6418,38.88,-2.46,14.7,37.0,266.71,-175.5987,-82.8153,49.939,59.93229101,10.71991311,0.0
38.654759,-1.0024,0.087,-0.1373,-0.1215,0.0994,-0.1332,0.0429,0.0366,0.0156,980.6516,38.88,-2.82,15.54,37.0,266.4391,-175.5969,-82.8773,49.3712,59.93229101,10.71991311,0.0
38.716064,-1.0112,0.0931,-0.1285,-0.2114,0.1552,-0.0199,-0.0316,0.0231,-0.0095,980.6516,38.04,-3.18,15.24,39.0,261.8386,-175.5731,-82.7175,49.3712,59.93229101,10.71991311,0.0
38.77561,-0.989,0.0689,-0.1378,0.0067,-0.0792,-0.111,-0.0084,-0.0037,-0.0125,980.6462,37.98,-3.54,14.52,39.0,263.1696,-175.5885,-82.7181,49.3712,59.93229101,10.71991311,0.0
38.836416,-1.0068,0.0872,-0.1256,-0.1677,0.1057,0.009,0.0044,-0.0147,-0.0034,980.6416,36.96,-4.68,17.7,39.0,260.2824,-175.6196,-82.7165,49.3712,59.93229101,10.71991311,0.0
38.895108,-0.9983,0.0858,-0.1341,-0.0837,0.093,-0.0757,0.0044,-0.0147,-0.0034,980.6416,38.46,-3.66,15.12,39.0,260.1832,-175.6293,-82.722,49.3712,59.93229101,10.71991311,0.0
38.955872,-0.9997,0.0804,-0.1283,-0.0974,0.0404,-0.023,-0.0261,-0.0343,-0.0119,980.6274,37.68,-4.02,16.02,41.0,258.0019,-175.6298,-82.75,49.1333,59.93229101,10.71991311,0.0
39.015591,-0.9997,0.0745,-0.1285,-0.0942,-0.0126,-0.0481,0.002,-0.0202,-0.0058,980.6274,38.34,-2.94,14.52,41.0,262.902,-175.6559,-82.8844,49.1333,59.93229101,10.71991311,0.0
39.075027,-1.0024,0.0818,-0.1261,-0.1208,0.0634,-0.0197,-0.0011,-0.0025,-0.0064,980.6213,38.52,-3.36,16.2,41.0,264.0657,-175.68,-82.8586,49.1333,59.93229101,10.71991311,0.0
39.136145,-1.0019,0.0779,-0.1268,-0.1143,0.028,-0.0385,-0.0011,-0.0025,-0.0064,980.6111,38.28,-2.46,14.82,37.0,264.5995,-175.6971,-82.9272,49.1333,59.93229101,10.71991311,0.0
39.19557,-1.001,0.0799,-0.1226,-0.1046,0.0484,0.0013,0.0044,0.0018,-0.0034,980.6111,38.64,-2.64,16.38,37.0,264.7765,-175.7049,-82.9327,49.1333,59.93229101,10.71991311,0.0
39.255951,-1.0027,0.0801,-0.1256,-0.1211,0.053,-0.0277,0.0069,-0.0056,-0.004,980.592,37.5,-4.2,15.78,37.0,262.5056,-175.7173,-82.9345,49.0998,59.93229101,10.71991311,0.0
39.317261,-1.0019,0.0796,-0.1222,-0.1133,0.0488,0.0007,0.0087,-0.0092,-0.0003,980.592,39.0,-2.28,14.76,37.0,263.6916,-175.7213,-82.9643,49.0998,59.93229101,10.71991311,0.0
39.375718,-0.9983,0.0792,-0.1334,-0.0779,0.0406,-0.1075,0.0099,0.0213,0.004,980.5945,37.92,-2.7,14.82,37.0,264.6224,-175.7009,-82.953,49.0998,59.93229101,10.71991311,0.0
39.436798,-1.011,0.0772,-0.1141,-0.2037,0.0181,0.0903,0.0063,-0.0477,0.0034,980.6072,37.68,-4.38,20.94,37.0,264.7952,-175.6815,-82.9019,49.0998,59.93229101,10.71991311,0.0
39.494014,-0.9988,0.0838,-0.1195,-0.0814,0.0801,0.0152,0.024,0.014,0.0125,980.6072,36.96,-4.14,16.5,36.0,264.8303,-175.6658,-83.034,49.0998,59.93229101,10.71991311,0.0
39.556485,-1.0049,0.0855,-0.1329,-0.1447,0.0879,-0.0938,-0.0078,0.0073,0.0064,980.6162,36.12,-6.42,20.46,36.0,264.7579,-175.6133,-82.8993,49.8749,59.93229101,10.71991311,0.0
39.615521,-0.999,0.0728,-0.1305,-0.0878,-0.0368,-0.0655,-0.0066,0.0018,-0.0162,980.6162,36.9,-5.46,18.72,36.0,264.66,-175.6123,-82.8741,49.8749,59.93229101,10.71991311,0.0
39.676689,-1.008,0.0809,-0.1273,-0.1773,0.049,-0.0232,0.0026,0.0048,-0.0107,980.6069,36.96,-4.56,16.26,36.0,264.7552,-175.652,-82.8081,49.8749,59.93229101,10.71991311,0.0
39.736996,-0.9985,0.0811,-0.1383,-0.0828,0.0564,-0.1371,-0.0066,0.0115,-0.0101,980.6382,38.82,-2.88,14.7,36.0,264.8586,-175.6814,-82.8451,49.8749,59.93229101,10.71991311,0.0
39.802098,-1.0012,0.0809,-0.128,-0.1099,0.0579,-0.0278,-0.0078,-0.0123,-0.0058,980.6382,37.98,-3.42,14.64,36.0,262.0913,-175.7039,-82.7935,49.8749,59.93229101,10.71991311,0.0
39.854614,-1.0046,0.0765,-0.1273,-0.1413,0.0164,-0.0362,0.0044,-0.0208,-0.0009,980.6396,37.44,-3.6,15.06,36.0,260.4728,-175.7133,-82.8857,49.4663,59.93229101,10.71991311,0.0
39.923736,-1.0,0.0796,-0.1287,-0.0962,0.0472,-0.0483,0.005,0.0042,-0.0003,980.6396,38.4,-3.0,15.12,37.0,260.2596,-175.7113,-82.8719,49.4663,59.93229101,10.71991311,0.0
39.976341,-1.0019,0.0794,-0.1285,-0.114,0.0439,-0.0571,-0.0011,-0.027,-0.0009,980.6523,38.4,-3.06,14.4,37.0,261.2335,-175.7061,-82.9383,49.4663,59.93229101,10.71991311,0.0
40.035387,-1.0044,0.0816,-0.1285,-0.1384,0.0635,-0.0545,0.0026,0.0121,0.0034,980.6467,38.28,-3.48,14.64,37.0,261.2544,-175.6952,-82.9225,49.4663,59.93229101,10.71991311,0.0
40.0951,-1.001,0.0782,-0.1287,-0.1048,0.028,-0.0587,0.0026,0.0121,0.0034,980.6467,37.44,-3.66,15.66,37.0,261.7194,-175.6835,-82.9333,49.4663,59.93229101,10.71991311,0.0
40.157083,-1.0027,0.0794,-0.1253,-0.121,0.0371,-0.0314,0.0069,-0.005,0.004,980.6521,39.6,-2.28,13.92,37.0,264.815,-175.6663,-82.9698,49.8378,59.93229101,10.71991311,0.0
40.217648,-0.9992,0.0806,-0.1285,-0.0872,0.0456,-0.0671,0.0075,-0.0129,0.0058,980.6521,38.64,-2.82,14.88,37.0,265.3159,-175.6459,-82.9966,49.8378,59.93229101,10.71991311,0.0
40.27608,-1.0014,0.0809,-0.1244,-0.1096,0.0418,-0.0237,0.0044,-0.0037,0.007,980.6594,38.82,-2.82,14.52,37.0,265.1232,-175.6098,-82.9805,49.8378,59.93229101,10.71991311,0.0
40.33539,-0.9958,0.0811,-0.1287,-0.0528,0.0392,-0.0839,0.0185,-0.0349,0.0095,980.6699,38.58,-2.58,13.74,36.0,265.6808,-175.5808,-83.0808,49.8378,59.93229101,10.71991311,0.0
40.397888,-0.9944,0.0821,-0.1275,-0.04,0.0399,-0.0647,0.0264,0.0311,0.0168,980.6699,38.4,-3.18,15.6,36.0,264.4865,-175.5284,-83.038,49.8378,59.93229101,10.71991311,0.0
40.455145,-1.0036,0.0899,-0.1241,-0.1323,0.1089,-0.0255,-0.0316,-0.0037,-0.0082,980.6641,37.68,-3.24,15.0,36.0,264.2059,-175.4839,-83.004,49.8086,59.93229101,10.71991311,0.0
40.517657,-0.9953,0.0694,-0.128,-0.0512,-0.0898,-0.0598,-0.0017,0.028,-0.0082,980.6641,37.92,-3.3,15.42,37.0,264.2416,-175.4978,-82.9806,49.8086,59.93229101,10.71991311,0.0
40.5763,-1.0066,0.0862,-0.1239,-0.1618,0.0792,-0.0131,0.0032,-0.0233,-0.007,980.6484,38.76,-2.76,13.8,37.0,263.5955,-175.5204,-82.9451,49.8086,59.93229101,10.71991311,0.0
40.641984,-0.9988,0.0845,-0.1273,-0.0852,0.0636,-0.0455,-0.02,0.0201,-0.0119,980.6738,38.58,-3.42,14.16,37.0,263.3654,-175.5272,-82.9389,49.8086,59.93229101,10.71991311,0.0
40.697433,-1.0041,0.0843,-0.1224,-0.1382,0.0605,0.005,-0.0249,-0.0202,-0.0125,980.6738,37.86,-3.54,14.22,37.0,260.0829,-175.5228,-82.9229,49.8086,59.93229101,10.71991311,0.0
40.754973,-1.0017,0.0796,-0.1253,-0.1135,0.0157,-0.0298,-0.0066,0.0164,-0.0058,980.6663,38.4,-3.6,15.72,37.0,261.2722,-175.527,-82.9591,51.1486,59.93229101,10.71991311,0.0
40.816842,-1.001,0.085,-0.127,-0.1074,0.0691,-0.0372,-0.0066,-0.0117,-0.0064,980.6663,37.14,-4.02,14.7,37.0,260.5687,-175.531,-82.9037,51.1486,59.93229101,10.71991311,0.0
40.8746,-1.0039,0.0801,-0.1248,-0.1355,0.022,-0.0205,-0.0096,0.0085,-0.0082,980.6724,39.24,-2.34,14.28,37.0,258.2263,-175.5356,-82.9325,51.1486,59.93229101,10.71991311,0.0
40.934601,-0.997,0.0818,-0.1285,-0.0698,0.0408,-0.0442,-0.0096,0.0195,-0.0082,980.6689,35.28,-6.84,20.04,36.0,258.3336,-175.5479,-82.8604,51.1486,59.93229101,10.71991311,0.0
40.995799,-1.0029,0.0809,-0.128,-0.1272,0.0347,-0.0376,-0.0121,-0.0062,-0.0113,980.6689,36.78,-4.62,19.56,36.0,258.3492,-175.5685,-82.8502,51.1486,59.93229101,10.71991311,0.0
41.056409,-1.0024,0.0774,-0.1275,-0.1225,0.0047,-0.0299,-0.0047,0.0146,-0.0101,980.6646,36.48,-5.46,17.34,36.0,258.3742,-175.5886,-82.8331,50.3036,59.93229101,10.71991311,0.0
41.11864,-0.9983,0.0799,-0.1378,-0.082,0.0328,-0.1264,0.0032,0.0066,-0.0076,980.6646,36.96,-4.14,18.42,36.0,258.4297,-175.6129,-82.809,50.3036,59.93229101,10.71991311,0.0
41.176465,-1.0068,0.0789,-0.1224,-0.1672,0.0258,0.0373,-0.0108,-0.0074,-0.0113,980.6516,37.62,-3.12,15.6,36.0,258.4759,-175.628,-82.7331,50.3036,59.93229101,10.71991311,0.0
41.236992,-1.0,0.0843,-0.1207,-0.0984,0.0807,0.0415,0.0246,0.0005,0.0003,980.6299,38.64,-2.94,15.36,36.0,258.5396,-175.6411,-82.8078,50.3036,59.93229101,10.71991311,0.0
41.298315,-0.9868,0.0774,-0.1371,0.0274,0.0096,-0.0946,0.0246,0.0586,0.0119,980.6299,38.94,-2.04,14.76,36.0,262.8043,-175.6174,-82.6639,50.3036,59.93229101,10.71991311,0.0
41.35532,-1.0139,0.0899,-0.1295,-0.2402,0.1366,-0.0026,-0.0255,-0.0141,-0.0229,980.6418,37.74,-4.02,17.4,36.0,262.4164,-175.6463,-82.5594,49.9412,59.93229101,10.71991311,0.0
41.416083,-0.9983,0.076,-0.1336,-0.0868,0.008,-0.0407,-0.0078,0.0427,-0.0119,980.6418,38.28,-2.46,14.34,36.0,263.8325,-175.6921,-82.5442,49.9412,59.93229101,10.71991311,0.0
41.476884,-1.0,0.0792,-0.1488,-0.1053,0.043,-0.1731,-0.0011,0.0146,-0.0058,980.6335,37.14,-3.9,15.54,36.0,263.0094,-175.7152,-82.4498,49.9412,59.93229101,10.71991311,0.0
41.536535,-1.0029,0.0809,-0.1336,-0.1356,0.0596,-0.0133,0.0044,-0.0092,0.0015,980.6401,37.62,-3.18,15.54,34.0,263.4479,-175.7142,-82.3822,49.9412,59.93229101,10.71991311,0.0
41.596055,-1.0039,0.0779,-0.1327,-0.1447,0.0302,-0.0072,0.0099,-0.0056,0.004,980.6401,39.3,-1.92,14.88,34.0,264.9673,-175.7102,-82.4031,49.9412,59.93229101,10.71991311,0.0
41.655618,-0.9961,0.0794,-0.14,-0.0689,0.0415,-0.0752,0.0099,0.0176,0.0064,980.6428,38.58,-3.06,15.12,34.0,264.895,-175.6923,-82.3804,49.5545,59.93229101,10.71991311,0.0
41.721616,-1.0041,0.0789,-0.1363,-0.1491,0.0326,-0.0328,-0.0005,-0.0001,-0.0003,980.6428,37.32,-3.54,14.7,34.0,262.3752,-175.668,-82.3413,49.5545,59.93229101,10.71991311,0.0
41.776395,-0.9997,0.0831,-0.1385,-0.1066,0.071,-0.0506,-0.0011,0.0066,0.0009,980.6592,38.28,-2.58,15.42,34.0,263.3326,-175.6549,-82.3195,49.5545,59.93229101,10.71991311,0.0
41.836757,-1.0017,0.0801,-0.1385,-0.1261,0.0404,-0.0497,0.0008,-0.008,0.0003,980.6558,38.1,-2.94,16.26,34.0,263.2444,-175.6436,-82.3137,49.5545,59.93229101,10.71991311,0.0
